"trial_id","trial_type","trial_index","time_elapsed","internal_node_id","subject_id","break_id","time","width","height","webaudio","browser","browser_version","mobile","os","fullscreen","vsync_rate","webcam","microphone","task","success","rt","stimulus","response","timeout","failed_images","failed_audio","failed_video","slider_start","character","label_condition","question_order"
"pavlovia_init","pavlovia","0","2861","0.0-0.0","60062","DH-007","19:12:14","","","","","","","","","","","","","","","","","","","","","","","",""
"","browser-check","1","3872","0.0-1.0","60062","DH-007","19:12:15","1440","812","true","chrome","129.0.0","false","Mac OS","true","59.52","true","true","Browser_Check","","","","","","","","","","","",""
"","fullscreen","2","7172","0.0-2.0","60062","DH-007","19:12:18","","","","","","","","","","","","Fullscreen","true","2297","","","","","","","","","",""
"","html-keyboard-response","3","9610","0.0-3.0","60062","DH-007","19:12:20","","","","","","","","","","","","Instruction","","2436","[""<p style=\""font-size: 36px; width: 1200px; line-height: 40px;\"">During this experiment, you will watch an episode of a publicly broadcasted murder mystery television show.<br><br>It contains adult themes and graphic language. While the video will portray a character accused of a violent crime, as well as verbal descriptions of the crime, <strong>violence will not be shown</strong>, nor will any other graphic visual content.<br><br><br>If you are not comfortable with continuing, please exit this experiment now.<br><br><br><br>Otherwise, please press the <strong>SPACE BAR</strong> to continue.</p>""]"," ","","","","","","","",""
"","preload","4","9614","0.0-4.0","60062","DH-007","19:12:20","","","","","","","","","","","","Preload","true","","","","false","[]","[]","[]","","","",""
"","image-button-response-modified","5","14788","0.0-5.0","60062","DH-007","19:12:26","","","","","","","","","","","","Consent","","5172","components/consent/SONA.png","0","","","","","","","",""
"","html-keyboard-response","6","16258","0.0-6.0","60062","DH-007","19:12:27","","","","","","","","","","","","Instr_Task","","1469","<p style=""font-size: 36px; width: 1200px; line-height: 40px;"">Thank you for agreeing to participate in this experiment! <br><br><br><br> Please press the <strong>SPACE BAR</strong> to continue</p>"," ","","","","","","","",""
"","html-keyboard-response","7","17360","0.0-7.0","60062","DH-007","19:12:28","","","","","","","","","","","","Instr_Task","","1101","<p style=""font-size: 36px; width: 1200px; line-height: 40px;"">Before we begin, please be sure that you are in a good space to complete the experiment. This space should be: <br><br><br><br> <strong>Comfortable <br><br> Distraction-free <br><br> Available for the next 60 minutes</strong> <br><br><br><br><br> Please press the <strong>SPACE BAR</strong> to continue</p>"," ","","","","","","","",""
"","html-keyboard-response","8","17757","0.0-8.0","60062","DH-007","19:12:28","","","","","","","","","","","","Instr_Task","","396","<p style=""font-size: 36px; width: 1200px; line-height: 40px;""><strong>Please give your full attention to the experiment. This includes:</strong> <br><br><br><br> Closing or minimizing other programs on your computer <br><br> Silencing your phone or placing it somewhere it will not be distracting <br><br> Testing that your audio is working and set to a comfortable volume that you can clearly hear <br><br> Not completing this experiment with others present <br><br><br><br><br> Please press the <strong>SPACE BAR</strong> to continue</p>"," ","","","","","","","",""
"","html-keyboard-response","9","18143","0.0-9.0","60062","DH-007","19:12:29","","","","","","","","","","","","Instr_Task","","385","<p style=""font-size: 36px; width: 1200px; line-height: 40px;"">You will watch 45 minutes of a crime mystery drama in which one character is suspected of having murdered another.<br><br><br>We will present background information about the characters of the show and the surrounding context before the episode begins.<br><br><br><br> Please press the <strong>SPACE BAR</strong> to continue</p>"," ","","","","","","","",""
"","html-keyboard-response","10","18538","0.0-10.0","60062","DH-007","19:12:29","","","","","","","","","","","","Instr_Task","","394","<p style=""font-size: 36px; width: 1200px; line-height: 40px;"">The video will intermittently pause while you watch to assess how certain <strong>you</strong> are that different characters in the show are guilty or innocent of having committed the murder.<br><br><br><br> Please press the <strong>SPACE BAR</strong> to continue</p>"," ","","","","","","","",""
"","html-keyboard-response","11","18914","0.0-11.0","60062","DH-007","19:12:30","","","","","","","","","","","","Instr_Task","","375","<p style=""font-size: 36px; width: 1200px; line-height: 40px;"">These certainty assessments tend to be flexible and may shift upon hearing something that a character says or seeing something that a character does or events that occur when a character is not on screen.<br><br><br>Some of this information may influence your assessments only slightly while other information may influence your assessments a great deal.<br><br><br>When prompted, please update your rating of how certain you are of each character's innocence or guilt at that moment in time. <br><br><br> Please try to be as precise as you can.<br><br><br><br> Please press the <strong>SPACE BAR</strong> to continue</p>"," ","","","","","","","",""
"","html-keyboard-response","12","19289","0.0-12.0","60062","DH-007","19:12:30","","","","","","","","","","","","Instr_Task","","374","<p style=""font-size: 36px; width: 1200px; line-height: 40px;"">These certainty assessments will be assessed on a continuous scale. <br><br><br> The scale ranges from 100% certain that a character is guilty to 100% certain that a character is innocent.<br><br><br>Leaving the scale in the middle (i.e., 0% certain) would indicate that you are completely uncertain whether a character is innocent or guilt.<br><br><br><br> Please press the <strong>SPACE BAR</strong> to continue</p>"," ","","","","","","","",""
"","html-keyboard-response","13","19681","0.0-13.0","60062","DH-007","19:12:30","","","","","","","","","","","","Instr_Task","","391","<p style=""font-size: 36px; width: 1200px; line-height: 40px;"">After your first rating, we will mark the scale where you had last rated that character to hopefully make updating your certainty rating easier. <br><br><br>A progress bar at the top will show the order in which you will assess the characters.<br><br><br>A portrait in the center of the screen will identify which character you are assessing at that moment.<br><br><br>Let's look at an example of what this looks like.<br><br><br><br> Please press the <strong>SPACE BAR</strong> to continue</p>"," ","","","","","","","",""
"","preload","14","19687","0.0-14.0","60062","DH-007","19:12:30","","","","","","","","","","","","Preload","true","","","","false","[]","[]","[]","","","",""
"","image-slider-response-modified","15","25988","0.0-15.0","60062","DH-007","19:12:37","","","","","","","","","","","","Practice","","6298","components/portraits/StimImgJonathanFraser.PNG","50","","","","","0","Jonathan Fraser","B",""
"","image-slider-response-modified","16","27222","0.0-16.0-0.0-0.0","60062","DH-007","19:12:38","","","","","","","","","","","","PracticeFailure","","1230","components/portraits/StimImgJonathanFraser.PNG","0","","","","","0","Jonathan Fraser","B",""
"","image-slider-response-modified","17","40336","0.0-16.0-0.1-0.1","60062","DH-007","19:12:51","","","","","","","","","","","","PracticeFailure","","13111","components/portraits/StimImgJonathanFraser.PNG","-50","","","","","0","Jonathan Fraser","B",""
"","html-keyboard-response","18","41084","0.0-17.0","60062","DH-007","19:12:52","","","","","","","","","","","","PracticeSuccess","","746","[""<p style=\""font-size: 36px; width: 1200px; line-height: 40px;\"">Great! If you have any questions that you must have answered before continuing, please contact study staff via the recruitment platform.<br><br><br>If you are ready to start, we will present the background information.<br><br><br><br> Please press the <strong>SPACE BAR</strong> to continue</p>""]"," ","","","","","","","",""
"","image-keyboard-response-modified","19","42635","0.0-18.0","60062","DH-007","19:12:53","","","","","","","","","","","","Background","","1547","[""components/portraits/StimImgElenaAlves.PNG"",""components/portraits/StimImgJonathanFraser.PNG""]"," ","","","","","","","",""
"","image-keyboard-response-modified","20","42970","0.0-19.0","60062","DH-007","19:12:54","","","","","","","","","","","","Background","","334","[""components/portraits/StimImgElenaAlves.PNG"",""components/portraits/StimImgJonathanFraser.PNG""]"," ","","","","","","","",""
"","image-keyboard-response-modified","21","43346","0.0-20.0","60062","DH-007","19:12:54","","","","","","","","","","","","Background","","375","[""components/portraits/StimImgMiguelAlves.PNG"",""components/portraits/StimImgHenryFraser.PNG""]"," ","","","","","","","",""
"","image-keyboard-response-modified","22","44334","0.0-21.0","60062","DH-007","19:12:55","","","","","","","","","","","","Background","","986","[""components/portraits/StimImgFernandoAlves.PNG"",""components/portraits/StimImgGraceFraser.PNG""]"," ","","","","","","","",""
"","image-keyboard-response-modified","23","44733","0.0-22.0","60062","DH-007","19:12:55","","","","","","","","","","","","Background","","397","[""components/portraits/StimImgSylviaSteinetz.PNG"",""components/portraits/StimImgFranklinReinhardt.PNG""]"," ","","","","","","","",""
"","image-keyboard-response-modified","24","45121","0.0-23.0","60062","DH-007","19:12:56","","","","","","","","","","","","Background","","387","[""components/portraits/StimImgRobertAdelman.PNG"",""components/portraits/StimImgHaleyFitzgerald.PNG""]"," ","","","","","","","",""
"","image-keyboard-response-modified","25","45499","0.0-24.0","60062","DH-007","19:12:56","","","","","","","","","","","","Background","","377","[""components/portraits/StimImgJoeMendoza.PNG""]"," ","","","","","","","",""
"","html-keyboard-response","26","46098","0.0-25.0","60062","DH-007","19:12:57","","","","","","","","","","","","Instr_ExpStart","","598","[""<p style=\""font-size: 36px; width: 1200px; line-height: 40px;\"">The experiment will now start! <br><br><br><br> Please press the <strong>SPACE BAR</strong> to continue</p>""]"," ","","","","","","","",""
"","preload","27","90628","0.0-26.0","60062","DH-007","19:13:41","","","","","","","","","","","","Preload","true","","","","false","[]","[]","[]","","","",""
"","browser-check","28","91624","0.0-27.0","60062","DH-007","19:13:42","1440","900","true","chrome","129.0.0","false","Mac OS","true","60.4","true","true","Browser_Check","","","","","","","","","","","",""
"","video-keyboard-response","29","156483","0.0-28.0","60062","DH-007","19:14:47","","","","","","","","","","","","video 0","","null","[""components/stim/StimVid_Undoing1.mp4""]","null","","","","","","","",""
"","image-slider-response-modified","30","179691","0.0-29.0","60062","DH-007","19:15:10","","","","","","","","","","","","assessment 0","","23205","components/portraits/StimImgJonathanFraser.PNG","50","","","","","0","Jonathan Fraser","B",""
"","image-slider-response-modified","31","217724","0.0-30.0","60062","DH-007","19:15:48","","","","","","","","","","","","assessment 1","","38030","components/portraits/StimImgMiguelAlves.PNG","-50","","","","","0","Miguel Alves","B",""
"","image-slider-response-modified","32","228008","0.0-31.0","60062","DH-007","19:15:59","","","","","","","","","","","","assessment 2","","10280","components/portraits/StimImgHenryFraser.PNG","-50","","","","","0","Henry Fraser","B",""
"","image-slider-response-modified","33","231191","0.0-32.0","60062","DH-007","19:16:2","","","","","","","","","","","","assessment 3","","3180","components/portraits/StimImgElenaAlves.PNG","-100","","","","","0","Elena Alves","B",""
"","image-slider-response-modified","34","241208","0.0-33.0","60062","DH-007","19:16:12","","","","","","","","","","","","assessment 4","","10014","components/portraits/StimImgSylviaSteinetz.PNG","-100","","","","","0","Sylvia Steinetz","B",""
"","image-slider-response-modified","35","250808","0.0-34.0","60062","DH-007","19:16:22","","","","","","","","","","","","assessment 5","","9596","components/portraits/StimImgFranklinReinhardt.PNG","-50","","","","","0","Franklin Reinhardt","B",""
"","image-slider-response-modified","36","259058","0.0-35.0","60062","DH-007","19:16:30","","","","","","","","","","","","assessment 6","","8247","components/portraits/StimImgFernandoAlves.PNG","-50","","","","","0","Fernando Alves","B",""
"","image-slider-response-modified","37","266408","0.0-36.0","60062","DH-007","19:16:37","","","","","","","","","","","","assessment 7","","7347","components/portraits/StimImgGraceFraser.PNG","-50","","","","","0","Grace Fraser","B",""
"","html-keyboard-response","38","267412","0.0-37.0","60062","DH-007","19:16:38","","","","","","","","","","","","","","null","[""<p style=\""font-size: 36px; width: 1200px; line-height: 40px;\"">Returning to the video...""]","null","","","","","","","",""
"","browser-check","39","268412","0.0-38.0","60062","DH-007","19:16:39","1440","900","true","chrome","129.0.0","false","Mac OS","true","60.16","true","true","Browser_Check","","","","","","","","","","","",""
"","video-keyboard-response","40","342060","0.0-39.0","60062","DH-007","19:17:53","","","","","","","","","","","","video 1","","null","[""components/stim/StimVid_Undoing1.mp4""]","null","","","","","","","",""
"","image-slider-response-modified","41","400978","0.0-40.0","60062","DH-007","19:18:52","","","","","","","","","","","","assessment 0","","58914","components/portraits/StimImgJonathanFraser.PNG","-50","","","","","50","Jonathan Fraser","B",""
"","image-slider-response-modified","42","401612","0.0-41.0","60062","DH-007","19:18:52","","","","","","","","","","","","assessment 1","","630","components/portraits/StimImgMiguelAlves.PNG","-50","","","","","-50","Miguel Alves","B",""
"","image-slider-response-modified","43","402045","0.0-42.0","60062","DH-007","19:18:53","","","","","","","","","","","","assessment 2","","429","components/portraits/StimImgHenryFraser.PNG","-50","","","","","-50","Henry Fraser","B",""
"","image-slider-response-modified","44","402329","0.0-43.0","60062","DH-007","19:18:53","","","","","","","","","","","","assessment 3","","279","components/portraits/StimImgElenaAlves.PNG","-100","","","","","-100","Elena Alves","B",""
"","image-slider-response-modified","45","402979","0.0-44.0","60062","DH-007","19:18:54","","","","","","","","","","","","assessment 4","","647","components/portraits/StimImgSylviaSteinetz.PNG","-100","","","","","-100","Sylvia Steinetz","B",""
"","image-slider-response-modified","46","403629","0.0-45.0","60062","DH-007","19:18:54","","","","","","","","","","","","assessment 5","","645","components/portraits/StimImgFranklinReinhardt.PNG","-50","","","","","-50","Franklin Reinhardt","B",""
"","image-slider-response-modified","47","404178","0.0-46.0","60062","DH-007","19:18:55","","","","","","","","","","","","assessment 6","","545","components/portraits/StimImgFernandoAlves.PNG","-50","","","","","-50","Fernando Alves","B",""
"","image-slider-response-modified","48","404862","0.0-47.0","60062","DH-007","19:18:56","","","","","","","","","","","","assessment 7","","681","components/portraits/StimImgGraceFraser.PNG","-50","","","","","-50","Grace Fraser","B",""
"","html-keyboard-response","49","405865","0.0-48.0","60062","DH-007","19:18:57","","","","","","","","","","","","","","null","[""<p style=\""font-size: 36px; width: 1200px; line-height: 40px;\"">Returning to the video...""]","null","","","","","","","",""
"","browser-check","50","406865","0.0-49.0","60062","DH-007","19:18:58","1440","900","true","chrome","129.0.0","false","Mac OS","true","60.14","true","true","Browser_Check","","","","","","","","","","","",""
"","video-keyboard-response","51","538402","0.0-50.0","60062","DH-007","19:21:9","","","","","","","","","","","","video 2","","null","[""components/stim/StimVid_Undoing1.mp4""]","null","","","","","","","",""
"","image-slider-response-modified","52","541748","0.0-51.0","60062","DH-007","19:21:12","","","","","","","","","","","","assessment 0","","3343","components/portraits/StimImgJonathanFraser.PNG","-50","","","","","-50","Jonathan Fraser","B",""
"","image-slider-response-modified","53","543149","0.0-52.0","60062","DH-007","19:21:14","","","","","","","","","","","","assessment 1","","1397","components/portraits/StimImgMiguelAlves.PNG","-50","","","","","-50","Miguel Alves","B",""
"","image-slider-response-modified","54","546749","0.0-53.0","60062","DH-007","19:21:17","","","","","","","","","","","","assessment 2","","3596","components/portraits/StimImgHenryFraser.PNG","-50","","","","","-50","Henry Fraser","B",""
"","image-slider-response-modified","55","547400","0.0-54.0","60062","DH-007","19:21:18","","","","","","","","","","","","assessment 3","","647","components/portraits/StimImgElenaAlves.PNG","-100","","","","","-100","Elena Alves","B",""
"","image-slider-response-modified","56","548182","0.0-55.0","60062","DH-007","19:21:19","","","","","","","","","","","","assessment 4","","778","components/portraits/StimImgSylviaSteinetz.PNG","-100","","","","","-100","Sylvia Steinetz","B",""
"","image-slider-response-modified","57","553915","0.0-56.0","60062","DH-007","19:21:25","","","","","","","","","","","","assessment 5","","5730","components/portraits/StimImgFranklinReinhardt.PNG","-50","","","","","-50","Franklin Reinhardt","B",""
"","image-slider-response-modified","58","564516","0.0-57.0","60062","DH-007","19:21:35","","","","","","","","","","","","assessment 6","","10596","components/portraits/StimImgFernandoAlves.PNG","-45","","","","","-50","Fernando Alves","B",""
"","image-slider-response-modified","59","574766","0.0-58.0","60062","DH-007","19:21:46","","","","","","","","","","","","assessment 7","","10246","components/portraits/StimImgGraceFraser.PNG","-48","","","","","-50","Grace Fraser","B",""
"","html-keyboard-response","60","575769","0.0-59.0","60062","DH-007","19:21:47","","","","","","","","","","","","","","null","[""<p style=\""font-size: 36px; width: 1200px; line-height: 40px;\"">Returning to the video...""]","null","","","","","","","",""
"","browser-check","61","576769","0.0-60.0","60062","DH-007","19:21:48","1440","900","true","chrome","129.0.0","false","Mac OS","true","60.18","true","true","Browser_Check","","","","","","","","","","","",""
"","video-keyboard-response","62","652526","0.0-61.0","60062","DH-007","19:23:3","","","","","","","","","","","","video 3","","null","[""components/stim/StimVid_Undoing1.mp4""]","null","","","","","","","",""
"","image-slider-response-modified","63","661751","0.0-62.0","60062","DH-007","19:23:12","","","","","","","","","","","","assessment 0","","9221","components/portraits/StimImgJonathanFraser.PNG","-45","","","","","-50","Jonathan Fraser","B",""
"","image-slider-response-modified","64","662485","0.0-63.0","60062","DH-007","19:23:13","","","","","","","","","","","","assessment 1","","730","components/portraits/StimImgMiguelAlves.PNG","-50","","","","","-50","Miguel Alves","B",""
"","image-slider-response-modified","65","663017","0.0-64.0","60062","DH-007","19:23:14","","","","","","","","","","","","assessment 2","","529","components/portraits/StimImgHenryFraser.PNG","-50","","","","","-50","Henry Fraser","B",""
"","image-slider-response-modified","66","665484","0.0-65.0","60062","DH-007","19:23:16","","","","","","","","","","","","assessment 3","","2463","components/portraits/StimImgElenaAlves.PNG","-100","","","","","-100","Elena Alves","B",""
"","image-slider-response-modified","67","666284","0.0-66.0","60062","DH-007","19:23:17","","","","","","","","","","","","assessment 4","","797","components/portraits/StimImgSylviaSteinetz.PNG","-100","","","","","-100","Sylvia Steinetz","B",""
"","image-slider-response-modified","68","674601","0.0-67.0","60062","DH-007","19:23:25","","","","","","","","","","","","assessment 5","","8313","components/portraits/StimImgFranklinReinhardt.PNG","-45","","","","","-50","Franklin Reinhardt","B",""
"","image-slider-response-modified","69","675635","0.0-68.0","60062","DH-007","19:23:26","","","","","","","","","","","","assessment 6","","1031","components/portraits/StimImgFernandoAlves.PNG","-45","","","","","-45","Fernando Alves","B",""
"","image-slider-response-modified","70","681235","0.0-69.0","60062","DH-007","19:23:32","","","","","","","","","","","","assessment 7","","5596","components/portraits/StimImgGraceFraser.PNG","-48","","","","","-48","Grace Fraser","B",""
"","html-keyboard-response","71","682238","0.0-70.0","60062","DH-007","19:23:33","","","","","","","","","","","","","","null","[""<p style=\""font-size: 36px; width: 1200px; line-height: 40px;\"">Returning to the video...""]","null","","","","","","","",""
"","browser-check","72","683238","0.0-71.0","60062","DH-007","19:23:34","1440","900","true","chrome","129.0.0","false","Mac OS","true","60.14","true","true","Browser_Check","","","","","","","","","","","",""
"","video-keyboard-response","73","762979","0.0-72.0","60062","DH-007","19:24:54","","","","","","","","","","","","video 4","","null","[""components/stim/StimVid_Undoing1.mp4""]","null","","","","","","","",""
"","image-slider-response-modified","74","766087","0.0-73.0","60062","DH-007","19:24:57","","","","","","","","","","","","assessment 0","","3104","components/portraits/StimImgJonathanFraser.PNG","-45","","","","","-45","Jonathan Fraser","B",""
"","image-slider-response-modified","75","766255","0.0-74.0","60062","DH-007","19:24:57","","","","","","","","","","","","assessment 1","","166","components/portraits/StimImgMiguelAlves.PNG","-50","","","","","-50","Miguel Alves","B",""
"","image-slider-response-modified","76","766436","0.0-75.0","60062","DH-007","19:24:57","","","","","","","","","","","","assessment 2","","179","components/portraits/StimImgHenryFraser.PNG","-50","","","","","-50","Henry Fraser","B",""
"","image-slider-response-modified","77","768573","0.0-76.0","60062","DH-007","19:24:59","","","","","","","","","","","","assessment 3","","2135","components/portraits/StimImgElenaAlves.PNG","-100","","","","","-100","Elena Alves","B",""
"","image-slider-response-modified","78","769254","0.0-77.0","60062","DH-007","19:25:0","","","","","","","","","","","","assessment 4","","677","components/portraits/StimImgSylviaSteinetz.PNG","-100","","","","","-100","Sylvia Steinetz","B",""
"","image-slider-response-modified","79","770521","0.0-78.0","60062","DH-007","19:25:1","","","","","","","","","","","","assessment 5","","1264","components/portraits/StimImgFranklinReinhardt.PNG","-45","","","","","-45","Franklin Reinhardt","B",""
"","image-slider-response-modified","80","771753","0.0-79.0","60062","DH-007","19:25:2","","","","","","","","","","","","assessment 6","","1229","components/portraits/StimImgFernandoAlves.PNG","-45","","","","","-45","Fernando Alves","B",""
"","image-slider-response-modified","81","772806","0.0-80.0","60062","DH-007","19:25:4","","","","","","","","","","","","assessment 7","","1050","components/portraits/StimImgGraceFraser.PNG","-48","","","","","-48","Grace Fraser","B",""
"","html-keyboard-response","82","773809","0.0-81.0","60062","DH-007","19:25:5","","","","","","","","","","","","","","null","[""<p style=\""font-size: 36px; width: 1200px; line-height: 40px;\"">Returning to the video...""]","null","","","","","","","",""
"","browser-check","83","774807","0.0-82.0","60062","DH-007","19:25:6","1440","900","true","chrome","129.0.0","false","Mac OS","true","60.29","true","true","Browser_Check","","","","","","","","","","","",""
"","video-keyboard-response","84","874211","0.0-83.0","60062","DH-007","19:26:45","","","","","","","","","","","","video 5","","null","[""components/stim/StimVid_Undoing1.mp4""]","null","","","","","","","",""
"","image-slider-response-modified","85","888656","0.0-84.0","60062","DH-007","19:26:59","","","","","","","","","","","","assessment 0","","14441","components/portraits/StimImgJonathanFraser.PNG","-40","","","","","-45","Jonathan Fraser","B",""
"","image-slider-response-modified","86","889539","0.0-85.0","60062","DH-007","19:27:0","","","","","","","","","","","","assessment 1","","881","components/portraits/StimImgMiguelAlves.PNG","-50","","","","","-50","Miguel Alves","B",""
"","image-slider-response-modified","87","890055","0.0-86.0","60062","DH-007","19:27:1","","","","","","","","","","","","assessment 2","","512","components/portraits/StimImgHenryFraser.PNG","-50","","","","","-50","Henry Fraser","B",""
"","image-slider-response-modified","88","890909","0.0-87.0","60062","DH-007","19:27:2","","","","","","","","","","","","assessment 3","","850","components/portraits/StimImgElenaAlves.PNG","-100","","","","","-100","Elena Alves","B",""
"","image-slider-response-modified","89","891489","0.0-88.0","60062","DH-007","19:27:2","","","","","","","","","","","","assessment 4","","577","components/portraits/StimImgSylviaSteinetz.PNG","-100","","","","","-100","Sylvia Steinetz","B",""
"","image-slider-response-modified","90","892343","0.0-89.0","60062","DH-007","19:27:3","","","","","","","","","","","","assessment 5","","850","components/portraits/StimImgFranklinReinhardt.PNG","-45","","","","","-45","Franklin Reinhardt","B",""
"","image-slider-response-modified","91","893223","0.0-90.0","60062","DH-007","19:27:4","","","","","","","","","","","","assessment 6","","877","components/portraits/StimImgFernandoAlves.PNG","-45","","","","","-45","Fernando Alves","B",""
"","image-slider-response-modified","92","894556","0.0-91.0","60062","DH-007","19:27:5","","","","","","","","","","","","assessment 7","","1330","components/portraits/StimImgGraceFraser.PNG","-48","","","","","-48","Grace Fraser","B",""
"","html-keyboard-response","93","895559","0.0-92.0","60062","DH-007","19:27:6","","","","","","","","","","","","","","null","[""<p style=\""font-size: 36px; width: 1200px; line-height: 40px;\"">Returning to the video...""]","null","","","","","","","",""
"","browser-check","94","896559","0.0-93.0","60062","DH-007","19:27:7","1440","900","true","chrome","129.0.0","false","Mac OS","true","60.08","true","true","Browser_Check","","","","","","","","","","","",""
"","video-keyboard-response","95","973929","0.0-94.0","60062","DH-007","19:28:25","","","","","","","","","","","","video 6","","null","[""components/stim/StimVid_Undoing1.mp4""]","null","","","","","","","",""
"","image-slider-response-modified","96","981077","0.0-95.0","60062","DH-007","19:28:32","","","","","","","","","","","","assessment 0","","7144","components/portraits/StimImgJonathanFraser.PNG","-40","","","","","-40","Jonathan Fraser","B",""
"","image-slider-response-modified","97","981292","0.0-96.0","60062","DH-007","19:28:32","","","","","","","","","","","","assessment 1","","212","components/portraits/StimImgMiguelAlves.PNG","-50","","","","","-50","Miguel Alves","B",""
"","image-slider-response-modified","98","981477","0.0-97.0","60062","DH-007","19:28:32","","","","","","","","","","","","assessment 2","","182","components/portraits/StimImgHenryFraser.PNG","-50","","","","","-50","Henry Fraser","B",""
"","image-slider-response-modified","99","981692","0.0-98.0","60062","DH-007","19:28:32","","","","","","","","","","","","assessment 3","","211","components/portraits/StimImgElenaAlves.PNG","-100","","","","","-100","Elena Alves","B",""
"","image-slider-response-modified","100","981875","0.0-99.0","60062","DH-007","19:28:33","","","","","","","","","","","","assessment 4","","180","components/portraits/StimImgSylviaSteinetz.PNG","-100","","","","","-100","Sylvia Steinetz","B",""
"","image-slider-response-modified","101","982444","0.0-100.0","60062","DH-007","19:28:33","","","","","","","","","","","","assessment 5","","565","components/portraits/StimImgFranklinReinhardt.PNG","-45","","","","","-45","Franklin Reinhardt","B",""
"","image-slider-response-modified","102","982858","0.0-101.0","60062","DH-007","19:28:34","","","","","","","","","","","","assessment 6","","412","components/portraits/StimImgFernandoAlves.PNG","-45","","","","","-45","Fernando Alves","B",""
"","image-slider-response-modified","103","983378","0.0-102.0","60062","DH-007","19:28:34","","","","","","","","","","","","assessment 7","","516","components/portraits/StimImgGraceFraser.PNG","-48","","","","","-48","Grace Fraser","B",""
"","html-keyboard-response","104","984381","0.0-103.0","60062","DH-007","19:28:35","","","","","","","","","","","","","","null","[""<p style=\""font-size: 36px; width: 1200px; line-height: 40px;\"">Returning to the video...""]","null","","","","","","","",""
"","browser-check","105","985378","0.0-104.0","60062","DH-007","19:28:36","1440","900","true","chrome","129.0.0","false","Mac OS","true","60.3","true","true","Browser_Check","","","","","","","","","","","",""
"","video-keyboard-response","106","1058742","0.0-105.0","60062","DH-007","19:29:49","","","","","","","","","","","","video 7","","null","[""components/stim/StimVid_Undoing1.mp4""]","null","","","","","","","",""
"","image-slider-response-modified","107","1073111","0.0-106.0","60062","DH-007","19:30:4","","","","","","","","","","","","assessment 0","","14366","components/portraits/StimImgJonathanFraser.PNG","-40","","","","","-40","Jonathan Fraser","B",""
"","image-slider-response-modified","108","1073493","0.0-107.0","60062","DH-007","19:30:4","","","","","","","","","","","","assessment 1","","378","components/portraits/StimImgMiguelAlves.PNG","-50","","","","","-50","Miguel Alves","B",""
"","image-slider-response-modified","109","1073727","0.0-108.0","60062","DH-007","19:30:4","","","","","","","","","","","","assessment 2","","230","components/portraits/StimImgHenryFraser.PNG","-50","","","","","-50","Henry Fraser","B",""
"","image-slider-response-modified","110","1073961","0.0-109.0","60062","DH-007","19:30:5","","","","","","","","","","","","assessment 3","","230","components/portraits/StimImgElenaAlves.PNG","-100","","","","","-100","Elena Alves","B",""
"","image-slider-response-modified","111","1074194","0.0-110.0","60062","DH-007","19:30:5","","","","","","","","","","","","assessment 4","","230","components/portraits/StimImgSylviaSteinetz.PNG","-100","","","","","-100","Sylvia Steinetz","B",""
"","image-slider-response-modified","112","1074544","0.0-111.0","60062","DH-007","19:30:5","","","","","","","","","","","","assessment 5","","346","components/portraits/StimImgFranklinReinhardt.PNG","-45","","","","","-45","Franklin Reinhardt","B",""
"","image-slider-response-modified","113","1074927","0.0-112.0","60062","DH-007","19:30:6","","","","","","","","","","","","assessment 6","","380","components/portraits/StimImgFernandoAlves.PNG","-45","","","","","-45","Fernando Alves","B",""
"","image-slider-response-modified","114","1082211","0.0-113.0","60062","DH-007","19:30:13","","","","","","","","","","","","assessment 7","","7280","components/portraits/StimImgGraceFraser.PNG","-48","","","","","-48","Grace Fraser","B",""
"","html-keyboard-response","115","1083214","0.0-114.0","60062","DH-007","19:30:14","","","","","","","","","","","","","","null","[""<p style=\""font-size: 36px; width: 1200px; line-height: 40px;\"">Returning to the video...""]","null","","","","","","","",""
"","browser-check","116","1084214","0.0-115.0","60062","DH-007","19:30:15","1440","900","true","chrome","129.0.0","false","Mac OS","true","60.17","true","true","Browser_Check","","","","","","","","","","","",""
"","video-keyboard-response","117","1152022","0.0-116.0","60062","DH-007","19:31:23","","","","","","","","","","","","video 8","","null","[""components/stim/StimVid_Undoing1.mp4""]","null","","","","","","","",""
"","image-slider-response-modified","118","1181546","0.0-117.0","60062","DH-007","19:31:52","","","","","","","","","","","","assessment 0","","29519","components/portraits/StimImgJonathanFraser.PNG","12","","","","","-40","Jonathan Fraser","B",""
"","image-slider-response-modified","119","1182446","0.0-118.0","60062","DH-007","19:31:53","","","","","","","","","","","","assessment 1","","897","components/portraits/StimImgMiguelAlves.PNG","-50","","","","","-50","Miguel Alves","B",""
"","image-slider-response-modified","120","1183246","0.0-119.0","60062","DH-007","19:31:54","","","","","","","","","","","","assessment 2","","796","components/portraits/StimImgHenryFraser.PNG","-50","","","","","-50","Henry Fraser","B",""
"","image-slider-response-modified","121","1184146","0.0-120.0","60062","DH-007","19:31:55","","","","","","","","","","","","assessment 3","","896","components/portraits/StimImgElenaAlves.PNG","-100","","","","","-100","Elena Alves","B",""
"","image-slider-response-modified","122","1184796","0.0-121.0","60062","DH-007","19:31:56","","","","","","","","","","","","assessment 4","","646","components/portraits/StimImgSylviaSteinetz.PNG","-100","","","","","-100","Sylvia Steinetz","B",""
"","image-slider-response-modified","123","1187897","0.0-122.0","60062","DH-007","19:31:59","","","","","","","","","","","","assessment 5","","3097","components/portraits/StimImgFranklinReinhardt.PNG","-32","","","","","-45","Franklin Reinhardt","B",""
"","image-slider-response-modified","124","1188429","0.0-123.0","60062","DH-007","19:31:59","","","","","","","","","","","","assessment 6","","529","components/portraits/StimImgFernandoAlves.PNG","-45","","","","","-45","Fernando Alves","B",""
"","image-slider-response-modified","125","1189280","0.0-124.0","60062","DH-007","19:32:0","","","","","","","","","","","","assessment 7","","847","components/portraits/StimImgGraceFraser.PNG","-48","","","","","-48","Grace Fraser","B",""
"","html-keyboard-response","126","1190283","0.0-125.0","60062","DH-007","19:32:1","","","","","","","","","","","","","","null","[""<p style=\""font-size: 36px; width: 1200px; line-height: 40px;\"">Returning to the video...""]","null","","","","","","","",""
"","browser-check","127","1191283","0.0-126.0","60062","DH-007","19:32:2","1440","900","true","chrome","129.0.0","false","Mac OS","true","60.16","true","true","Browser_Check","","","","","","","","","","","",""
"","video-keyboard-response","128","1259067","0.0-127.0","60062","DH-007","19:33:10","","","","","","","","","","","","video 9","","null","[""components/stim/StimVid_Undoing1.mp4""]","null","","","","","","","",""
"","image-slider-response-modified","129","1282015","0.0-128.0","60062","DH-007","19:33:33","","","","","","","","","","","","assessment 0","","22944","components/portraits/StimImgJonathanFraser.PNG","19","","","","","12","Jonathan Fraser","B",""
"","image-slider-response-modified","130","1282732","0.0-129.0","60062","DH-007","19:33:33","","","","","","","","","","","","assessment 1","","713","components/portraits/StimImgMiguelAlves.PNG","-50","","","","","-50","Miguel Alves","B",""
"","image-slider-response-modified","131","1282918","0.0-130.0","60062","DH-007","19:33:34","","","","","","","","","","","","assessment 2","","182","components/portraits/StimImgHenryFraser.PNG","-50","","","","","-50","Henry Fraser","B",""
"","image-slider-response-modified","132","1283101","0.0-131.0","60062","DH-007","19:33:34","","","","","","","","","","","","assessment 3","","181","components/portraits/StimImgElenaAlves.PNG","-100","","","","","-100","Elena Alves","B",""
"","image-slider-response-modified","133","1283685","0.0-132.0","60062","DH-007","19:33:34","","","","","","","","","","","","assessment 4","","581","components/portraits/StimImgSylviaSteinetz.PNG","-100","","","","","-100","Sylvia Steinetz","B",""
"","image-slider-response-modified","134","1284132","0.0-133.0","60062","DH-007","19:33:35","","","","","","","","","","","","assessment 5","","443","components/portraits/StimImgFranklinReinhardt.PNG","-32","","","","","-32","Franklin Reinhardt","B",""
"","image-slider-response-modified","135","1284699","0.0-134.0","60062","DH-007","19:33:35","","","","","","","","","","","","assessment 6","","564","components/portraits/StimImgFernandoAlves.PNG","-45","","","","","-45","Fernando Alves","B",""
"","image-slider-response-modified","136","1285134","0.0-135.0","60062","DH-007","19:33:36","","","","","","","","","","","","assessment 7","","431","components/portraits/StimImgGraceFraser.PNG","-48","","","","","-48","Grace Fraser","B",""
"","html-keyboard-response","137","1286136","0.0-136.0","60062","DH-007","19:33:37","","","","","","","","","","","","","","null","[""<p style=\""font-size: 36px; width: 1200px; line-height: 40px;\"">Returning to the video...""]","null","","","","","","","",""
"","browser-check","138","1287135","0.0-137.0","60062","DH-007","19:33:38","1440","900","true","chrome","129.0.0","false","Mac OS","true","60.16","true","true","Browser_Check","","","","","","","","","","","",""
"","video-keyboard-response","139","1362911","0.0-138.0","60062","DH-007","19:34:54","","","","","","","","","","","","video 10","","null","[""components/stim/StimVid_Undoing1.mp4""]","null","","","","","","","",""
"","image-slider-response-modified","140","1370687","0.0-139.0","60062","DH-007","19:35:1","","","","","","","","","","","","assessment 0","","7772","components/portraits/StimImgJonathanFraser.PNG","19","","","","","19","Jonathan Fraser","B",""
"","image-slider-response-modified","141","1370884","0.0-140.0","60062","DH-007","19:35:2","","","","","","","","","","","","assessment 1","","189","components/portraits/StimImgMiguelAlves.PNG","-50","","","","","-50","Miguel Alves","B",""
"","image-slider-response-modified","142","1371083","0.0-141.0","60062","DH-007","19:35:2","","","","","","","","","","","","assessment 2","","196","components/portraits/StimImgHenryFraser.PNG","-50","","","","","-50","Henry Fraser","B",""
"","image-slider-response-modified","143","1371301","0.0-142.0","60062","DH-007","19:35:2","","","","","","","","","","","","assessment 3","","215","components/portraits/StimImgElenaAlves.PNG","-100","","","","","-100","Elena Alves","B",""
"","image-slider-response-modified","144","1372200","0.0-143.0","60062","DH-007","19:35:3","","","","","","","","","","","","assessment 4","","896","components/portraits/StimImgSylviaSteinetz.PNG","-100","","","","","-100","Sylvia Steinetz","B",""
"","image-slider-response-modified","145","1372717","0.0-144.0","60062","DH-007","19:35:3","","","","","","","","","","","","assessment 5","","513","components/portraits/StimImgFranklinReinhardt.PNG","-32","","","","","-32","Franklin Reinhardt","B",""
"","image-slider-response-modified","146","1373200","0.0-145.0","60062","DH-007","19:35:4","","","","","","","","","","","","assessment 6","","480","components/portraits/StimImgFernandoAlves.PNG","-45","","","","","-45","Fernando Alves","B",""
"","image-slider-response-modified","147","1373667","0.0-146.0","60062","DH-007","19:35:4","","","","","","","","","","","","assessment 7","","463","components/portraits/StimImgGraceFraser.PNG","-48","","","","","-48","Grace Fraser","B",""
"","html-keyboard-response","148","1374670","0.0-147.0","60062","DH-007","19:35:5","","","","","","","","","","","","","","null","[""<p style=\""font-size: 36px; width: 1200px; line-height: 40px;\"">Returning to the video...""]","null","","","","","","","",""
"","browser-check","149","1375671","0.0-148.0","60062","DH-007","19:35:6","1440","900","true","chrome","129.0.0","false","Mac OS","true","60.07","true","true","Browser_Check","","","","","","","","","","","",""
"","video-keyboard-response","150","1442956","0.0-149.0","60062","DH-007","19:36:14","","","","","","","","","","","","video 11","","null","[""components/stim/StimVid_Undoing1.mp4""]","null","","","","","","","",""
"","image-slider-response-modified","151","1445086","0.0-150.0","60062","DH-007","19:36:16","","","","","","","","","","","","assessment 0","","2126","components/portraits/StimImgJonathanFraser.PNG","19","","","","","19","Jonathan Fraser","B",""
"","image-slider-response-modified","152","1445235","0.0-151.0","60062","DH-007","19:36:16","","","","","","","","","","","","assessment 1","","147","components/portraits/StimImgMiguelAlves.PNG","-50","","","","","-50","Miguel Alves","B",""
"","image-slider-response-modified","153","1445385","0.0-152.0","60062","DH-007","19:36:16","","","","","","","","","","","","assessment 2","","148","components/portraits/StimImgHenryFraser.PNG","-50","","","","","-50","Henry Fraser","B",""
"","image-slider-response-modified","154","1445519","0.0-153.0","60062","DH-007","19:36:16","","","","","","","","","","","","assessment 3","","130","components/portraits/StimImgElenaAlves.PNG","-100","","","","","-100","Elena Alves","B",""
"","image-slider-response-modified","155","1445669","0.0-154.0","60062","DH-007","19:36:16","","","","","","","","","","","","assessment 4","","147","components/portraits/StimImgSylviaSteinetz.PNG","-100","","","","","-100","Sylvia Steinetz","B",""
"","image-slider-response-modified","156","1445802","0.0-155.0","60062","DH-007","19:36:17","","","","","","","","","","","","assessment 5","","131","components/portraits/StimImgFranklinReinhardt.PNG","-32","","","","","-32","Franklin Reinhardt","B",""
"","image-slider-response-modified","157","1446319","0.0-156.0","60062","DH-007","19:36:17","","","","","","","","","","","","assessment 6","","515","components/portraits/StimImgFernandoAlves.PNG","-45","","","","","-45","Fernando Alves","B",""
"","image-slider-response-modified","158","1446736","0.0-157.0","60062","DH-007","19:36:17","","","","","","","","","","","","assessment 7","","413","components/portraits/StimImgGraceFraser.PNG","-48","","","","","-48","Grace Fraser","B",""
"","html-keyboard-response","159","1447739","0.0-158.0","60062","DH-007","19:36:18","","","","","","","","","","","","","","null","[""<p style=\""font-size: 36px; width: 1200px; line-height: 40px;\"">Returning to the video...""]","null","","","","","","","",""
"","browser-check","160","1448739","0.0-159.0","60062","DH-007","19:36:19","1440","900","true","chrome","129.0.0","false","Mac OS","true","60.1","true","true","Browser_Check","","","","","","","","","","","",""
"","video-keyboard-response","161","1553986","0.0-160.0","60062","DH-007","19:38:5","","","","","","","","","","","","video 12","","null","[""components/stim/StimVid_Undoing1.mp4""]","null","","","","","","","",""
"","image-slider-response-modified","162","1563006","0.0-161.0","60062","DH-007","19:38:14","","","","","","","","","","","","assessment 0","","9017","components/portraits/StimImgJonathanFraser.PNG","19","","","","","19","Jonathan Fraser","B",""
"","image-slider-response-modified","163","1563756","0.0-162.0","60062","DH-007","19:38:14","","","","","","","","","","","","assessment 1","","746","components/portraits/StimImgMiguelAlves.PNG","-50","","","","","-50","Miguel Alves","B",""
"","image-slider-response-modified","164","1569057","0.0-163.0","60062","DH-007","19:38:20","","","","","","","","","","","","assessment 2","","5297","components/portraits/StimImgHenryFraser.PNG","-50","","","","","-50","Henry Fraser","B",""
"","image-slider-response-modified","165","1569939","0.0-164.0","60062","DH-007","19:38:21","","","","","","","","","","","","assessment 3","","879","components/portraits/StimImgElenaAlves.PNG","-100","","","","","-100","Elena Alves","B",""
"","image-slider-response-modified","166","1571038","0.0-165.0","60062","DH-007","19:38:22","","","","","","","","","","","","assessment 4","","1095","components/portraits/StimImgSylviaSteinetz.PNG","-100","","","","","-100","Sylvia Steinetz","B",""
"","image-slider-response-modified","167","1571722","0.0-166.0","60062","DH-007","19:38:22","","","","","","","","","","","","assessment 5","","680","components/portraits/StimImgFranklinReinhardt.PNG","-32","","","","","-32","Franklin Reinhardt","B",""
"","image-slider-response-modified","168","1573405","0.0-167.0","60062","DH-007","19:38:24","","","","","","","","","","","","assessment 6","","1680","components/portraits/StimImgFernandoAlves.PNG","-45","","","","","-45","Fernando Alves","B",""
"","image-slider-response-modified","169","1574072","0.0-168.0","60062","DH-007","19:38:25","","","","","","","","","","","","assessment 7","","663","components/portraits/StimImgGraceFraser.PNG","-48","","","","","-48","Grace Fraser","B",""
"","html-keyboard-response","170","1575074","0.0-169.0","60062","DH-007","19:38:26","","","","","","","","","","","","","","null","[""<p style=\""font-size: 36px; width: 1200px; line-height: 40px;\"">Returning to the video...""]","null","","","","","","","",""
"","browser-check","171","1576075","0.0-170.0","60062","DH-007","19:38:27","1440","900","true","chrome","129.0.0","false","Mac OS","true","60.04","true","true","Browser_Check","","","","","","","","","","","",""
"","video-keyboard-response","172","1645455","0.0-171.0","60062","DH-007","19:39:36","","","","","","","","","","","","video 13","","null","[""components/stim/StimVid_Undoing1.mp4""]","null","","","","","","","",""
"","image-slider-response-modified","173","1648273","0.0-172.0","60062","DH-007","19:39:39","","","","","","","","","","","","assessment 0","","2815","components/portraits/StimImgJonathanFraser.PNG","19","","","","","19","Jonathan Fraser","B",""
"","image-slider-response-modified","174","1649223","0.0-173.0","60062","DH-007","19:39:40","","","","","","","","","","","","assessment 1","","948","components/portraits/StimImgMiguelAlves.PNG","-50","","","","","-50","Miguel Alves","B",""
"","image-slider-response-modified","175","1650124","0.0-174.0","60062","DH-007","19:39:41","","","","","","","","","","","","assessment 2","","897","components/portraits/StimImgHenryFraser.PNG","-50","","","","","-50","Henry Fraser","B",""
"","image-slider-response-modified","176","1651490","0.0-175.0","60062","DH-007","19:39:42","","","","","","","","","","","","assessment 3","","1362","components/portraits/StimImgElenaAlves.PNG","-100","","","","","-100","Elena Alves","B",""
"","image-slider-response-modified","177","1652444","0.0-176.0","60062","DH-007","19:39:43","","","","","","","","","","","","assessment 4","","950","components/portraits/StimImgSylviaSteinetz.PNG","-100","","","","","-100","Sylvia Steinetz","B",""
"","image-slider-response-modified","178","1653191","0.0-177.0","60062","DH-007","19:39:44","","","","","","","","","","","","assessment 5","","744","components/portraits/StimImgFranklinReinhardt.PNG","-32","","","","","-32","Franklin Reinhardt","B",""
"","image-slider-response-modified","179","1655190","0.0-178.0","60062","DH-007","19:39:46","","","","","","","","","","","","assessment 6","","1996","components/portraits/StimImgFernandoAlves.PNG","-45","","","","","-45","Fernando Alves","B",""
"","image-slider-response-modified","180","1659391","0.0-179.0","60062","DH-007","19:39:50","","","","","","","","","","","","assessment 7","","4197","components/portraits/StimImgGraceFraser.PNG","-44","","","","","-48","Grace Fraser","B",""
"","html-keyboard-response","181","1660394","0.0-180.0","60062","DH-007","19:39:51","","","","","","","","","","","","","","null","[""<p style=\""font-size: 36px; width: 1200px; line-height: 40px;\"">Returning to the video...""]","null","","","","","","","",""
"","browser-check","182","1661394","0.0-181.0","60062","DH-007","19:39:52","1440","900","true","chrome","129.0.0","false","Mac OS","true","60.1","true","true","Browser_Check","","","","","","","","","","","",""
"","video-keyboard-response","183","1738736","0.0-182.0","60062","DH-007","19:41:9","","","","","","","","","","","","video 14","","null","[""components/stim/StimVid_Undoing1.mp4""]","null","","","","","","","",""
"","image-slider-response-modified","184","1740276","0.0-183.0","60062","DH-007","19:41:11","","","","","","","","","","","","assessment 0","","1535","components/portraits/StimImgJonathanFraser.PNG","19","","","","","19","Jonathan Fraser","B",""
"","image-slider-response-modified","185","1740442","0.0-184.0","60062","DH-007","19:41:11","","","","","","","","","","","","assessment 1","","164","components/portraits/StimImgMiguelAlves.PNG","-50","","","","","-50","Miguel Alves","B",""
"","image-slider-response-modified","186","1740626","0.0-185.0","60062","DH-007","19:41:11","","","","","","","","","","","","assessment 2","","182","components/portraits/StimImgHenryFraser.PNG","-50","","","","","-50","Henry Fraser","B",""
"","image-slider-response-modified","187","1741311","0.0-186.0","60062","DH-007","19:41:12","","","","","","","","","","","","assessment 3","","682","components/portraits/StimImgElenaAlves.PNG","-100","","","","","-100","Elena Alves","B",""
"","image-slider-response-modified","188","1741643","0.0-187.0","60062","DH-007","19:41:12","","","","","","","","","","","","assessment 4","","330","components/portraits/StimImgSylviaSteinetz.PNG","-100","","","","","-100","Sylvia Steinetz","B",""
"","image-slider-response-modified","189","1742009","0.0-188.0","60062","DH-007","19:41:13","","","","","","","","","","","","assessment 5","","362","components/portraits/StimImgFranklinReinhardt.PNG","-32","","","","","-32","Franklin Reinhardt","B",""
"","image-slider-response-modified","190","1742644","0.0-189.0","60062","DH-007","19:41:13","","","","","","","","","","","","assessment 6","","632","components/portraits/StimImgFernandoAlves.PNG","-45","","","","","-45","Fernando Alves","B",""
"","image-slider-response-modified","191","1747061","0.0-190.0","60062","DH-007","19:41:18","","","","","","","","","","","","assessment 7","","4414","components/portraits/StimImgGraceFraser.PNG","-40","","","","","-44","Grace Fraser","B",""
"","html-keyboard-response","192","1748063","0.0-191.0","60062","DH-007","19:41:19","","","","","","","","","","","","","","null","[""<p style=\""font-size: 36px; width: 1200px; line-height: 40px;\"">Returning to the video...""]","null","","","","","","","",""
"","browser-check","193","1749063","0.0-192.0","60062","DH-007","19:41:20","1440","900","true","chrome","129.0.0","false","Mac OS","true","60.15","true","true","Browser_Check","","","","","","","","","","","",""
"","video-keyboard-response","194","1838392","0.0-193.0","60062","DH-007","19:42:49","","","","","","","","","","","","video 15","","null","[""components/stim/StimVid_Undoing1.mp4""]","null","","","","","","","",""
"","image-slider-response-modified","195","1846145","0.0-194.0","60062","DH-007","19:42:57","","","","","","","","","","","","assessment 0","","7749","components/portraits/StimImgJonathanFraser.PNG","19","","","","","19","Jonathan Fraser","B",""
"","image-slider-response-modified","196","1846412","0.0-195.0","60062","DH-007","19:42:57","","","","","","","","","","","","assessment 1","","263","components/portraits/StimImgMiguelAlves.PNG","-50","","","","","-50","Miguel Alves","B",""
"","image-slider-response-modified","197","1846679","0.0-196.0","60062","DH-007","19:42:57","","","","","","","","","","","","assessment 2","","263","components/portraits/StimImgHenryFraser.PNG","-50","","","","","-50","Henry Fraser","B",""
"","image-slider-response-modified","198","1846929","0.0-197.0","60062","DH-007","19:42:58","","","","","","","","","","","","assessment 3","","246","components/portraits/StimImgElenaAlves.PNG","-100","","","","","-100","Elena Alves","B",""
"","image-slider-response-modified","199","1847162","0.0-198.0","60062","DH-007","19:42:58","","","","","","","","","","","","assessment 4","","230","components/portraits/StimImgSylviaSteinetz.PNG","-100","","","","","-100","Sylvia Steinetz","B",""
"","image-slider-response-modified","200","1847412","0.0-199.0","60062","DH-007","19:42:58","","","","","","","","","","","","assessment 5","","245","components/portraits/StimImgFranklinReinhardt.PNG","-32","","","","","-32","Franklin Reinhardt","B",""
"","image-slider-response-modified","201","1847646","0.0-200.0","60062","DH-007","19:42:58","","","","","","","","","","","","assessment 6","","230","components/portraits/StimImgFernandoAlves.PNG","-45","","","","","-45","Fernando Alves","B",""
"","image-slider-response-modified","202","1847928","0.0-201.0","60062","DH-007","19:42:59","","","","","","","","","","","","assessment 7","","278","components/portraits/StimImgGraceFraser.PNG","-40","","","","","-40","Grace Fraser","B",""
"","html-keyboard-response","203","1848931","0.0-202.0","60062","DH-007","19:43:0","","","","","","","","","","","","","","null","[""<p style=\""font-size: 36px; width: 1200px; line-height: 40px;\"">Returning to the video...""]","null","","","","","","","",""
"","browser-check","204","1849932","0.0-203.0","60062","DH-007","19:43:1","1440","900","true","chrome","129.0.0","false","Mac OS","true","60.1","true","true","Browser_Check","","","","","","","","","","","",""
"","video-keyboard-response","205","1937375","0.0-204.0","60062","DH-007","19:44:28","","","","","","","","","","","","video 16","","null","[""components/stim/StimVid_Undoing1.mp4""]","null","","","","","","","",""
"","image-slider-response-modified","206","1945631","0.0-205.0","60062","DH-007","19:44:36","","","","","","","","","","","","assessment 0","","8252","components/portraits/StimImgJonathanFraser.PNG","19","","","","","19","Jonathan Fraser","B",""
"","image-slider-response-modified","207","1945832","0.0-206.0","60062","DH-007","19:44:37","","","","","","","","","","","","assessment 1","","197","components/portraits/StimImgMiguelAlves.PNG","-50","","","","","-50","Miguel Alves","B",""
"","image-slider-response-modified","208","1946033","0.0-207.0","60062","DH-007","19:44:37","","","","","","","","","","","","assessment 2","","197","components/portraits/StimImgHenryFraser.PNG","-50","","","","","-50","Henry Fraser","B",""
"","image-slider-response-modified","209","1946230","0.0-208.0","60062","DH-007","19:44:37","","","","","","","","","","","","assessment 3","","194","components/portraits/StimImgElenaAlves.PNG","-100","","","","","-100","Elena Alves","B",""
"","image-slider-response-modified","210","1946480","0.0-209.0","60062","DH-007","19:44:37","","","","","","","","","","","","assessment 4","","247","components/portraits/StimImgSylviaSteinetz.PNG","-100","","","","","-100","Sylvia Steinetz","B",""
"","image-slider-response-modified","211","1946817","0.0-210.0","60062","DH-007","19:44:38","","","","","","","","","","","","assessment 5","","332","components/portraits/StimImgFranklinReinhardt.PNG","-32","","","","","-32","Franklin Reinhardt","B",""
"","image-slider-response-modified","212","1947147","0.0-211.0","60062","DH-007","19:44:38","","","","","","","","","","","","assessment 6","","327","components/portraits/StimImgFernandoAlves.PNG","-45","","","","","-45","Fernando Alves","B",""
"","image-slider-response-modified","213","1947414","0.0-212.0","60062","DH-007","19:44:38","","","","","","","","","","","","assessment 7","","263","components/portraits/StimImgGraceFraser.PNG","-40","","","","","-40","Grace Fraser","B",""
"","html-keyboard-response","214","1948417","0.0-213.0","60062","DH-007","19:44:39","","","","","","","","","","","","","","null","[""<p style=\""font-size: 36px; width: 1200px; line-height: 40px;\"">Returning to the video...""]","null","","","","","","","",""
"","browser-check","215","1949417","0.0-214.0","60062","DH-007","19:44:40","1440","900","true","chrome","129.0.0","false","Mac OS","true","60.07","true","true","Browser_Check","","","","","","","","","","","",""
"","preload","216","2033173","0.0-215.0","60062","DH-007","19:46:4","","","","","","","","","","","","Preload","true","","","","false","[]","[]","[]","","","",""
"","video-keyboard-response","217","2081931","0.0-216.0","60062","DH-007","","","","","","","","","","","","","video 17","","null","[""components/stim/StimVid_Undoing1.mp4""]","null","","","","","","","",""
"","video-keyboard-response","218","2101104","0.0-217.0","60062","DH-007","","","","","","","","","","","","","video 18","","null","[""components/stim/StimVid_Undoing2.mp4""]","null","","","","","","","",""
"","image-slider-response-modified","219","2105151","0.0-218.0","60062","DH-007","19:47:16","","","","","","","","","","","","assessment 0","","4042","components/portraits/StimImgJonathanFraser.PNG","19","","","","","19","Jonathan Fraser","B",""
"","image-slider-response-modified","220","2105452","0.0-219.0","60062","DH-007","19:47:16","","","","","","","","","","","","assessment 1","","297","components/portraits/StimImgMiguelAlves.PNG","-50","","","","","-50","Miguel Alves","B",""
"","image-slider-response-modified","221","2105769","0.0-220.0","60062","DH-007","19:47:17","","","","","","","","","","","","assessment 2","","314","components/portraits/StimImgHenryFraser.PNG","-50","","","","","-50","Henry Fraser","B",""
"","image-slider-response-modified","222","2106068","0.0-221.0","60062","DH-007","19:47:17","","","","","","","","","","","","assessment 3","","295","components/portraits/StimImgElenaAlves.PNG","-100","","","","","-100","Elena Alves","B",""
"","image-slider-response-modified","223","2106836","0.0-222.0","60062","DH-007","19:47:18","","","","","","","","","","","","assessment 4","","765","components/portraits/StimImgSylviaSteinetz.PNG","-100","","","","","-100","Sylvia Steinetz","B",""
"","image-slider-response-modified","224","2107168","0.0-223.0","60062","DH-007","19:47:18","","","","","","","","","","","","assessment 5","","328","components/portraits/StimImgFranklinReinhardt.PNG","-32","","","","","-32","Franklin Reinhardt","B",""
"","image-slider-response-modified","225","2107569","0.0-224.0","60062","DH-007","19:47:18","","","","","","","","","","","","assessment 6","","398","components/portraits/StimImgFernandoAlves.PNG","-45","","","","","-45","Fernando Alves","B",""
"","image-slider-response-modified","226","2107952","0.0-225.0","60062","DH-007","19:47:19","","","","","","","","","","","","assessment 7","","380","components/portraits/StimImgGraceFraser.PNG","-40","","","","","-40","Grace Fraser","B",""
"","html-keyboard-response","227","2108956","0.0-226.0","60062","DH-007","19:47:20","","","","","","","","","","","","","","null","[""<p style=\""font-size: 36px; width: 1200px; line-height: 40px;\"">Returning to the video...""]","null","","","","","","","",""
"","browser-check","228","2109955","0.0-227.0","60062","DH-007","19:47:21","1440","900","true","chrome","129.0.0","false","Mac OS","true","60.21","true","true","Browser_Check","","","","","","","","","","","",""
"","video-keyboard-response","229","2191291","0.0-228.0","60062","DH-007","19:48:42","","","","","","","","","","","","video18","","null","[""components/stim/StimVid_Undoing2.mp4""]","null","","","","","","","",""
"","image-slider-response-modified","230","2194369","0.0-229.0","60062","DH-007","19:48:45","","","","","","","","","","","","assessment 0","","3073","components/portraits/StimImgJonathanFraser.PNG","19","","","","","19","Jonathan Fraser","B",""
"","image-slider-response-modified","231","2199936","0.0-230.0","60062","DH-007","19:48:51","","","","","","","","","","","","assessment 1","","5564","components/portraits/StimImgMiguelAlves.PNG","-100","","","","","-50","Miguel Alves","B",""
"","image-slider-response-modified","232","2202319","0.0-231.0","60062","DH-007","19:48:53","","","","","","","","","","","","assessment 2","","2381","components/portraits/StimImgHenryFraser.PNG","-100","","","","","-50","Henry Fraser","B",""
"","image-slider-response-modified","233","2202937","0.0-232.0","60062","DH-007","19:48:54","","","","","","","","","","","","assessment 3","","614","components/portraits/StimImgElenaAlves.PNG","-100","","","","","-100","Elena Alves","B",""
"","image-slider-response-modified","234","2203505","0.0-233.0","60062","DH-007","19:48:54","","","","","","","","","","","","assessment 4","","565","components/portraits/StimImgSylviaSteinetz.PNG","-100","","","","","-100","Sylvia Steinetz","B",""
"","image-slider-response-modified","235","2205603","0.0-234.0","60062","DH-007","19:48:56","","","","","","","","","","","","assessment 5","","2095","components/portraits/StimImgFranklinReinhardt.PNG","-32","","","","","-32","Franklin Reinhardt","B",""
"","image-slider-response-modified","236","2216636","0.0-235.0","60062","DH-007","19:49:7","","","","","","","","","","","","assessment 6","","11030","components/portraits/StimImgFernandoAlves.PNG","-44","","","","","-45","Fernando Alves","B",""
"","image-slider-response-modified","237","2218203","0.0-236.0","60062","DH-007","19:49:9","","","","","","","","","","","","assessment 7","","1563","components/portraits/StimImgGraceFraser.PNG","-40","","","","","-40","Grace Fraser","B",""
"","html-keyboard-response","238","2219206","0.0-237.0","60062","DH-007","19:49:10","","","","","","","","","","","","","","null","[""<p style=\""font-size: 36px; width: 1200px; line-height: 40px;\"">Returning to the video...""]","null","","","","","","","",""
"","browser-check","239","2220206","0.0-238.0","60062","DH-007","19:49:11","1440","900","true","chrome","129.0.0","false","Mac OS","true","60.12","true","true","Browser_Check","","","","","","","","","","","",""
"","video-keyboard-response","240","2307945","0.0-239.0","60062","DH-007","19:50:39","","","","","","","","","","","","video19","","null","[""components/stim/StimVid_Undoing2.mp4""]","null","","","","","","","",""
"","image-slider-response-modified","241","2313004","0.0-240.0","60062","DH-007","19:50:44","","","","","","","","","","","","assessment 0","","5055","components/portraits/StimImgJonathanFraser.PNG","23","","","","","19","Jonathan Fraser","B",""
"","image-slider-response-modified","242","2313455","0.0-241.0","60062","DH-007","19:50:44","","","","","","","","","","","","assessment 1","","447","components/portraits/StimImgMiguelAlves.PNG","-100","","","","","-100","Miguel Alves","B",""
"","image-slider-response-modified","243","2313772","0.0-242.0","60062","DH-007","19:50:45","","","","","","","","","","","","assessment 2","","314","components/portraits/StimImgHenryFraser.PNG","-100","","","","","-100","Henry Fraser","B",""
"","image-slider-response-modified","244","2314071","0.0-243.0","60062","DH-007","19:50:45","","","","","","","","","","","","assessment 3","","295","components/portraits/StimImgElenaAlves.PNG","-100","","","","","-100","Elena Alves","B",""
"","image-slider-response-modified","245","2314538","0.0-244.0","60062","DH-007","19:50:45","","","","","","","","","","","","assessment 4","","463","components/portraits/StimImgSylviaSteinetz.PNG","-100","","","","","-100","Sylvia Steinetz","B",""
"","image-slider-response-modified","246","2315771","0.0-245.0","60062","DH-007","19:50:47","","","","","","","","","","","","assessment 5","","1229","components/portraits/StimImgFranklinReinhardt.PNG","-32","","","","","-32","Franklin Reinhardt","B",""
"","image-slider-response-modified","247","2316388","0.0-246.0","60062","DH-007","19:50:47","","","","","","","","","","","","assessment 6","","613","components/portraits/StimImgFernandoAlves.PNG","-44","","","","","-44","Fernando Alves","B",""
"","image-slider-response-modified","248","2317155","0.0-247.0","60062","DH-007","19:50:48","","","","","","","","","","","","assessment 7","","763","components/portraits/StimImgGraceFraser.PNG","-40","","","","","-40","Grace Fraser","B",""
"","html-keyboard-response","249","2318157","0.0-248.0","60062","DH-007","19:50:49","","","","","","","","","","","","","","null","[""<p style=\""font-size: 36px; width: 1200px; line-height: 40px;\"">Returning to the video...""]","null","","","","","","","",""
"","browser-check","250","2319158","0.0-249.0","60062","DH-007","19:50:50","1440","900","true","chrome","129.0.0","false","Mac OS","true","60.1","true","true","Browser_Check","","","","","","","","","","","",""
"","video-keyboard-response","251","2424396","0.0-250.0","60062","DH-007","19:52:35","","","","","","","","","","","","video20","","null","[""components/stim/StimVid_Undoing2.mp4""]","null","","","","","","","",""
"","image-slider-response-modified","252","2428123","0.0-251.0","60062","DH-007","19:52:39","","","","","","","","","","","","assessment 0","","3723","components/portraits/StimImgJonathanFraser.PNG","23","","","","","23","Jonathan Fraser","B",""
"","image-slider-response-modified","253","2428590","0.0-252.0","60062","DH-007","19:52:39","","","","","","","","","","","","assessment 1","","463","components/portraits/StimImgMiguelAlves.PNG","-100","","","","","-100","Miguel Alves","B",""
"","image-slider-response-modified","254","2429055","0.0-253.0","60062","DH-007","19:52:40","","","","","","","","","","","","assessment 2","","460","components/portraits/StimImgHenryFraser.PNG","-100","","","","","-100","Henry Fraser","B",""
"","image-slider-response-modified","255","2429839","0.0-254.0","60062","DH-007","19:52:41","","","","","","","","","","","","assessment 3","","780","components/portraits/StimImgElenaAlves.PNG","-100","","","","","-100","Elena Alves","B",""
"","image-slider-response-modified","256","2430322","0.0-255.0","60062","DH-007","19:52:41","","","","","","","","","","","","assessment 4","","479","components/portraits/StimImgSylviaSteinetz.PNG","-100","","","","","-100","Sylvia Steinetz","B",""
"","image-slider-response-modified","257","2431039","0.0-256.0","60062","DH-007","19:52:42","","","","","","","","","","","","assessment 5","","713","components/portraits/StimImgFranklinReinhardt.PNG","-32","","","","","-32","Franklin Reinhardt","B",""
"","image-slider-response-modified","258","2431856","0.0-257.0","60062","DH-007","19:52:43","","","","","","","","","","","","assessment 6","","813","components/portraits/StimImgFernandoAlves.PNG","-44","","","","","-44","Fernando Alves","B",""
"","image-slider-response-modified","259","2432657","0.0-258.0","60062","DH-007","19:52:43","","","","","","","","","","","","assessment 7","","797","components/portraits/StimImgGraceFraser.PNG","-40","","","","","-40","Grace Fraser","B",""
"","html-keyboard-response","260","2433659","0.0-259.0","60062","DH-007","19:52:44","","","","","","","","","","","","","","null","[""<p style=\""font-size: 36px; width: 1200px; line-height: 40px;\"">Returning to the video...""]","null","","","","","","","",""
"","browser-check","261","2434659","0.0-260.0","60062","DH-007","19:52:45","1440","900","true","chrome","129.0.0","false","Mac OS","true","60.1","true","true","Browser_Check","","","","","","","","","","","",""
"","video-keyboard-response","262","2517863","0.0-261.0","60062","DH-007","19:54:9","","","","","","","","","","","","video21","","null","[""components/stim/StimVid_Undoing2.mp4""]","null","","","","","","","",""
"","image-slider-response-modified","263","2545440","0.0-262.0","60062","DH-007","19:54:36","","","","","","","","","","","","assessment 0","","27573","components/portraits/StimImgJonathanFraser.PNG","23","","","","","23","Jonathan Fraser","B",""
"","image-slider-response-modified","264","2545926","0.0-263.0","60062","DH-007","19:54:37","","","","","","","","","","","","assessment 1","","484","components/portraits/StimImgMiguelAlves.PNG","-100","","","","","-100","Miguel Alves","B",""
"","image-slider-response-modified","265","2546191","0.0-264.0","60062","DH-007","19:54:37","","","","","","","","","","","","assessment 2","","261","components/portraits/StimImgHenryFraser.PNG","-100","","","","","-100","Henry Fraser","B",""
"","image-slider-response-modified","266","2546458","0.0-265.0","60062","DH-007","19:54:37","","","","","","","","","","","","assessment 3","","263","components/portraits/StimImgElenaAlves.PNG","-100","","","","","-100","Elena Alves","B",""
"","image-slider-response-modified","267","2546924","0.0-266.0","60062","DH-007","19:54:38","","","","","","","","","","","","assessment 4","","462","components/portraits/StimImgSylviaSteinetz.PNG","-100","","","","","-100","Sylvia Steinetz","B",""
"","image-slider-response-modified","268","2547857","0.0-267.0","60062","DH-007","19:54:39","","","","","","","","","","","","assessment 5","","930","components/portraits/StimImgFranklinReinhardt.PNG","-32","","","","","-32","Franklin Reinhardt","B",""
"","image-slider-response-modified","269","2548424","0.0-268.0","60062","DH-007","19:54:39","","","","","","","","","","","","assessment 6","","564","components/portraits/StimImgFernandoAlves.PNG","-44","","","","","-44","Fernando Alves","B",""
"","image-slider-response-modified","270","2548924","0.0-269.0","60062","DH-007","19:54:40","","","","","","","","","","","","assessment 7","","496","components/portraits/StimImgGraceFraser.PNG","-40","","","","","-40","Grace Fraser","B",""
"","html-keyboard-response","271","2549927","0.0-270.0","60062","DH-007","19:54:41","","","","","","","","","","","","","","null","[""<p style=\""font-size: 36px; width: 1200px; line-height: 40px;\"">Returning to the video...""]","null","","","","","","","",""
"","browser-check","272","2550927","0.0-271.0","60062","DH-007","19:54:42","1440","900","true","chrome","129.0.0","false","Mac OS","true","60.07","true","true","Browser_Check","","","","","","","","","","","",""
"","video-keyboard-response","273","2672407","0.0-272.0","60062","DH-007","19:56:43","","","","","","","","","","","","video22","","null","[""components/stim/StimVid_Undoing2.mp4""]","null","","","","","","","",""
"","image-slider-response-modified","274","2694710","0.0-273.0","60062","DH-007","19:57:5","","","","","","","","","","","","assessment 0","","22299","components/portraits/StimImgJonathanFraser.PNG","23","","","","","23","Jonathan Fraser","B",""
"","image-slider-response-modified","275","2695076","0.0-274.0","60062","DH-007","19:57:6","","","","","","","","","","","","assessment 1","","362","components/portraits/StimImgMiguelAlves.PNG","-100","","","","","-100","Miguel Alves","B",""
"","image-slider-response-modified","276","2696076","0.0-275.0","60062","DH-007","19:57:7","","","","","","","","","","","","assessment 2","","997","components/portraits/StimImgHenryFraser.PNG","-100","","","","","-100","Henry Fraser","B",""
"","image-slider-response-modified","277","2696993","0.0-276.0","60062","DH-007","19:57:8","","","","","","","","","","","","assessment 3","","913","components/portraits/StimImgElenaAlves.PNG","-100","","","","","-100","Elena Alves","B",""
"","image-slider-response-modified","278","2701762","0.0-277.0","60062","DH-007","19:57:13","","","","","","","","","","","","assessment 4","","4766","components/portraits/StimImgSylviaSteinetz.PNG","-100","","","","","-100","Sylvia Steinetz","B",""
"","image-slider-response-modified","279","2702443","0.0-278.0","60062","DH-007","19:57:13","","","","","","","","","","","","assessment 5","","678","components/portraits/StimImgFranklinReinhardt.PNG","-32","","","","","-32","Franklin Reinhardt","B",""
"","image-slider-response-modified","280","2702926","0.0-279.0","60062","DH-007","19:57:14","","","","","","","","","","","","assessment 6","","478","components/portraits/StimImgFernandoAlves.PNG","-44","","","","","-44","Fernando Alves","B",""
"","image-slider-response-modified","281","2703460","0.0-280.0","60062","DH-007","19:57:14","","","","","","","","","","","","assessment 7","","530","components/portraits/StimImgGraceFraser.PNG","-40","","","","","-40","Grace Fraser","B",""
"","html-keyboard-response","282","2704463","0.0-281.0","60062","DH-007","19:57:15","","","","","","","","","","","","","","null","[""<p style=\""font-size: 36px; width: 1200px; line-height: 40px;\"">Returning to the video...""]","null","","","","","","","",""
"","browser-check","283","2705463","0.0-282.0","60062","DH-007","19:57:16","1440","900","true","chrome","129.0.0","false","Mac OS","true","60.14","true","true","Browser_Check","","","","","","","","","","","",""
"","video-keyboard-response","284","2792920","0.0-283.0","60062","DH-007","19:58:44","","","","","","","","","","","","video23","","null","[""components/stim/StimVid_Undoing2.mp4""]","null","","","","","","","",""
"","image-slider-response-modified","285","2795613","0.0-284.0","60062","DH-007","19:58:46","","","","","","","","","","","","assessment 0","","2689","components/portraits/StimImgJonathanFraser.PNG","23","","","","","23","Jonathan Fraser","B",""
"","image-slider-response-modified","286","2795978","0.0-285.0","60062","DH-007","19:58:47","","","","","","","","","","","","assessment 1","","362","components/portraits/StimImgMiguelAlves.PNG","-100","","","","","-100","Miguel Alves","B",""
"","image-slider-response-modified","287","2796962","0.0-286.0","60062","DH-007","19:58:48","","","","","","","","","","","","assessment 2","","980","components/portraits/StimImgHenryFraser.PNG","-100","","","","","-100","Henry Fraser","B",""
"","image-slider-response-modified","288","2798478","0.0-287.0","60062","DH-007","19:58:49","","","","","","","","","","","","assessment 3","","1513","components/portraits/StimImgElenaAlves.PNG","-100","","","","","-100","Elena Alves","B",""
"","image-slider-response-modified","289","2798945","0.0-288.0","60062","DH-007","19:58:50","","","","","","","","","","","","assessment 4","","463","components/portraits/StimImgSylviaSteinetz.PNG","-100","","","","","-100","Sylvia Steinetz","B",""
"","image-slider-response-modified","290","2799295","0.0-289.0","60062","DH-007","19:58:50","","","","","","","","","","","","assessment 5","","346","components/portraits/StimImgFranklinReinhardt.PNG","-32","","","","","-32","Franklin Reinhardt","B",""
"","image-slider-response-modified","291","2800061","0.0-290.0","60062","DH-007","19:58:51","","","","","","","","","","","","assessment 6","","762","components/portraits/StimImgFernandoAlves.PNG","-44","","","","","-44","Fernando Alves","B",""
"","image-slider-response-modified","292","2800678","0.0-291.0","60062","DH-007","19:58:51","","","","","","","","","","","","assessment 7","","613","components/portraits/StimImgGraceFraser.PNG","-40","","","","","-40","Grace Fraser","B",""
"","html-keyboard-response","293","2801681","0.0-292.0","60062","DH-007","19:58:52","","","","","","","","","","","","","","null","[""<p style=\""font-size: 36px; width: 1200px; line-height: 40px;\"">Returning to the video...""]","null","","","","","","","",""
"","browser-check","294","2802681","0.0-293.0","60062","DH-007","19:58:53","1440","900","true","chrome","129.0.0","false","Mac OS","true","60.17","true","true","Browser_Check","","","","","","","","","","","",""
"","video-keyboard-response","295","2873935","0.0-294.0","60062","DH-007","20:0:5","","","","","","","","","","","","video24","","null","[""components/stim/StimVid_Undoing2.mp4""]","null","","","","","","","",""
"","image-slider-response-modified","296","2875796","0.0-295.0","60062","DH-007","20:0:7","","","","","","","","","","","","assessment 0","","1857","components/portraits/StimImgJonathanFraser.PNG","23","","","","","23","Jonathan Fraser","B",""
"","image-slider-response-modified","297","2876113","0.0-296.0","60062","DH-007","20:0:7","","","","","","","","","","","","assessment 1","","312","components/portraits/StimImgMiguelAlves.PNG","-100","","","","","-100","Miguel Alves","B",""
"","image-slider-response-modified","298","2876645","0.0-297.0","60062","DH-007","20:0:7","","","","","","","","","","","","assessment 2","","528","components/portraits/StimImgHenryFraser.PNG","-100","","","","","-100","Henry Fraser","B",""
"","image-slider-response-modified","299","2877112","0.0-298.0","60062","DH-007","20:0:8","","","","","","","","","","","","assessment 3","","464","components/portraits/StimImgElenaAlves.PNG","-100","","","","","-100","Elena Alves","B",""
"","image-slider-response-modified","300","2877646","0.0-299.0","60062","DH-007","20:0:8","","","","","","","","","","","","assessment 4","","529","components/portraits/StimImgSylviaSteinetz.PNG","-100","","","","","-100","Sylvia Steinetz","B",""
"","image-slider-response-modified","301","2878712","0.0-300.0","60062","DH-007","20:0:9","","","","","","","","","","","","assessment 5","","1062","components/portraits/StimImgFranklinReinhardt.PNG","-32","","","","","-32","Franklin Reinhardt","B",""
"","image-slider-response-modified","302","2879946","0.0-301.0","60062","DH-007","20:0:11","","","","","","","","","","","","assessment 6","","1230","components/portraits/StimImgFernandoAlves.PNG","-44","","","","","-44","Fernando Alves","B",""
"","image-slider-response-modified","303","2880597","0.0-302.0","60062","DH-007","20:0:11","","","","","","","","","","","","assessment 7","","647","components/portraits/StimImgGraceFraser.PNG","-40","","","","","-40","Grace Fraser","B",""
"","html-keyboard-response","304","2881600","0.0-303.0","60062","DH-007","20:0:12","","","","","","","","","","","","","","null","[""<p style=\""font-size: 36px; width: 1200px; line-height: 40px;\"">Returning to the video...""]","null","","","","","","","",""
"","browser-check","305","2882598","0.0-304.0","60062","DH-007","20:0:13","1440","900","true","chrome","129.0.0","false","Mac OS","true","60.22","true","true","Browser_Check","","","","","","","","","","","",""
"","video-keyboard-response","306","2963799","0.0-305.0","60062","DH-007","20:1:35","","","","","","","","","","","","video25","","null","[""components/stim/StimVid_Undoing2.mp4""]","null","","","","","","","",""
"","image-slider-response-modified","307","2988079","0.0-306.0","60062","DH-007","20:1:59","","","","","","","","","","","","assessment 0","","24279","components/portraits/StimImgJonathanFraser.PNG","28","","","","","23","Jonathan Fraser","B",""
"","image-slider-response-modified","308","2988446","0.0-307.0","60062","DH-007","20:1:59","","","","","","","","","","","","assessment 1","","362","components/portraits/StimImgMiguelAlves.PNG","-100","","","","","-100","Miguel Alves","B",""
"","image-slider-response-modified","309","2988712","0.0-308.0","60062","DH-007","20:1:59","","","","","","","","","","","","assessment 2","","263","components/portraits/StimImgHenryFraser.PNG","-100","","","","","-100","Henry Fraser","B",""
"","image-slider-response-modified","310","2988961","0.0-309.0","60062","DH-007","20:2:0","","","","","","","","","","","","assessment 3","","246","components/portraits/StimImgElenaAlves.PNG","-100","","","","","-100","Elena Alves","B",""
"","image-slider-response-modified","311","2989279","0.0-310.0","60062","DH-007","20:2:0","","","","","","","","","","","","assessment 4","","314","components/portraits/StimImgSylviaSteinetz.PNG","-100","","","","","-100","Sylvia Steinetz","B",""
"","image-slider-response-modified","312","2989862","0.0-311.0","60062","DH-007","20:2:1","","","","","","","","","","","","assessment 5","","579","components/portraits/StimImgFranklinReinhardt.PNG","-32","","","","","-32","Franklin Reinhardt","B",""
"","image-slider-response-modified","313","2990363","0.0-312.0","60062","DH-007","20:2:1","","","","","","","","","","","","assessment 6","","497","components/portraits/StimImgFernandoAlves.PNG","-44","","","","","-44","Fernando Alves","B",""
"","image-slider-response-modified","314","2990747","0.0-313.0","60062","DH-007","20:2:1","","","","","","","","","","","","assessment 7","","380","components/portraits/StimImgGraceFraser.PNG","-40","","","","","-40","Grace Fraser","B",""
"","html-keyboard-response","315","2991750","0.0-314.0","60062","DH-007","20:2:2","","","","","","","","","","","","","","null","[""<p style=\""font-size: 36px; width: 1200px; line-height: 40px;\"">Returning to the video...""]","null","","","","","","","",""
"","browser-check","316","2992749","0.0-315.0","60062","DH-007","20:2:3","1440","900","true","chrome","129.0.0","false","Mac OS","true","60.2","true","true","Browser_Check","","","","","","","","","","","",""
"","video-keyboard-response","317","3066372","0.0-316.0","60062","DH-007","20:3:17","","","","","","","","","","","","video26","","null","[""components/stim/StimVid_Undoing2.mp4""]","null","","","","","","","",""
"","image-slider-response-modified","318","3147362","0.0-317.0","60062","DH-007","20:4:38","","","","","","","","","","","","assessment 0","","80989","components/portraits/StimImgJonathanFraser.PNG","28","","","","","28","Jonathan Fraser","B",""
"","image-slider-response-modified","319","3148145","0.0-318.0","60062","DH-007","20:4:39","","","","","","","","","","","","assessment 1","","780","components/portraits/StimImgMiguelAlves.PNG","-100","","","","","-100","Miguel Alves","B",""
"","image-slider-response-modified","320","3148777","0.0-319.0","60062","DH-007","20:4:40","","","","","","","","","","","","assessment 2","","629","components/portraits/StimImgHenryFraser.PNG","-100","","","","","-100","Henry Fraser","B",""
"","image-slider-response-modified","321","3150260","0.0-320.0","60062","DH-007","20:4:41","","","","","","","","","","","","assessment 3","","1480","components/portraits/StimImgElenaAlves.PNG","-100","","","","","-100","Elena Alves","B",""
"","image-slider-response-modified","322","3156227","0.0-321.0","60062","DH-007","20:4:47","","","","","","","","","","","","assessment 4","","5963","components/portraits/StimImgSylviaSteinetz.PNG","-100","","","","","-100","Sylvia Steinetz","B",""
"","image-slider-response-modified","323","3156829","0.0-322.0","60062","DH-007","20:4:48","","","","","","","","","","","","assessment 5","","598","components/portraits/StimImgFranklinReinhardt.PNG","-32","","","","","-32","Franklin Reinhardt","B",""
"","image-slider-response-modified","324","3159127","0.0-323.0","60062","DH-007","20:4:50","","","","","","","","","","","","assessment 6","","2295","components/portraits/StimImgFernandoAlves.PNG","-44","","","","","-44","Fernando Alves","B",""
"","image-slider-response-modified","325","3160011","0.0-324.0","60062","DH-007","20:4:51","","","","","","","","","","","","assessment 7","","880","components/portraits/StimImgGraceFraser.PNG","-40","","","","","-40","Grace Fraser","B",""
"","html-keyboard-response","326","3161014","0.0-325.0","60062","DH-007","20:4:52","","","","","","","","","","","","","","null","[""<p style=\""font-size: 36px; width: 1200px; line-height: 40px;\"">Returning to the video...""]","null","","","","","","","",""
"","browser-check","327","3162014","0.0-326.0","60062","DH-007","20:4:53","1440","900","true","chrome","129.0.0","false","Mac OS","true","60.15","true","true","Browser_Check","","","","","","","","","","","",""
"","video-keyboard-response","328","3251849","0.0-327.0","60062","DH-007","20:6:23","","","","","","","","","","","","video27","","null","[""components/stim/StimVid_Undoing2.mp4""]","null","","","","","","","",""
"","image-slider-response-modified","329","3257659","0.0-328.0","60062","DH-007","20:6:28","","","","","","","","","","","","assessment 0","","5807","components/portraits/StimImgJonathanFraser.PNG","35","","","","","28","Jonathan Fraser","B",""
"","image-slider-response-modified","330","3258360","0.0-329.0","60062","DH-007","20:6:29","","","","","","","","","","","","assessment 1","","697","components/portraits/StimImgMiguelAlves.PNG","-100","","","","","-100","Miguel Alves","B",""
"","image-slider-response-modified","331","3258759","0.0-330.0","60062","DH-007","20:6:30","","","","","","","","","","","","assessment 2","","396","components/portraits/StimImgHenryFraser.PNG","-100","","","","","-100","Henry Fraser","B",""
"","image-slider-response-modified","332","3259028","0.0-331.0","60062","DH-007","20:6:30","","","","","","","","","","","","assessment 3","","265","components/portraits/StimImgElenaAlves.PNG","-100","","","","","-100","Elena Alves","B",""
"","image-slider-response-modified","333","3259260","0.0-332.0","60062","DH-007","20:6:30","","","","","","","","","","","","assessment 4","","228","components/portraits/StimImgSylviaSteinetz.PNG","-100","","","","","-100","Sylvia Steinetz","B",""
"","image-slider-response-modified","334","3259726","0.0-333.0","60062","DH-007","20:6:30","","","","","","","","","","","","assessment 5","","463","components/portraits/StimImgFranklinReinhardt.PNG","-32","","","","","-32","Franklin Reinhardt","B",""
"","image-slider-response-modified","335","3260027","0.0-334.0","60062","DH-007","20:6:31","","","","","","","","","","","","assessment 6","","296","components/portraits/StimImgFernandoAlves.PNG","-44","","","","","-44","Fernando Alves","B",""
"","image-slider-response-modified","336","3260277","0.0-335.0","60062","DH-007","20:6:31","","","","","","","","","","","","assessment 7","","246","components/portraits/StimImgGraceFraser.PNG","-40","","","","","-40","Grace Fraser","B",""
"","html-keyboard-response","337","3261280","0.0-336.0","60062","DH-007","20:6:32","","","","","","","","","","","","","","null","[""<p style=\""font-size: 36px; width: 1200px; line-height: 40px;\"">Returning to the video...""]","null","","","","","","","",""
"","browser-check","338","3262279","0.0-337.0","60062","DH-007","20:6:33","1440","900","true","chrome","129.0.0","false","Mac OS","true","60.2","true","true","Browser_Check","","","","","","","","","","","",""
"","video-keyboard-response","339","3347595","0.0-338.0","60062","DH-007","20:7:58","","","","","","","","","","","","video28","","null","[""components/stim/StimVid_Undoing2.mp4""]","null","","","","","","","",""
"","image-slider-response-modified","340","3374226","0.0-339.0","60062","DH-007","20:8:25","","","","","","","","","","","","assessment 0","","26628","components/portraits/StimImgJonathanFraser.PNG","35","","","","","35","Jonathan Fraser","B",""
"","image-slider-response-modified","341","3374726","0.0-340.0","60062","DH-007","20:8:25","","","","","","","","","","","","assessment 1","","496","components/portraits/StimImgMiguelAlves.PNG","-100","","","","","-100","Miguel Alves","B",""
"","image-slider-response-modified","342","3375125","0.0-341.0","60062","DH-007","20:8:26","","","","","","","","","","","","assessment 2","","395","components/portraits/StimImgHenryFraser.PNG","-100","","","","","-100","Henry Fraser","B",""
"","image-slider-response-modified","343","3375442","0.0-342.0","60062","DH-007","20:8:26","","","","","","","","","","","","assessment 3","","313","components/portraits/StimImgElenaAlves.PNG","-100","","","","","-100","Elena Alves","B",""
"","image-slider-response-modified","344","3375740","0.0-343.0","60062","DH-007","20:8:26","","","","","","","","","","","","assessment 4","","295","components/portraits/StimImgSylviaSteinetz.PNG","-100","","","","","-100","Sylvia Steinetz","B",""
"","image-slider-response-modified","345","3376008","0.0-344.0","60062","DH-007","20:8:27","","","","","","","","","","","","assessment 5","","265","components/portraits/StimImgFranklinReinhardt.PNG","-32","","","","","-32","Franklin Reinhardt","B",""
"","image-slider-response-modified","346","3376308","0.0-345.0","60062","DH-007","20:8:27","","","","","","","","","","","","assessment 6","","296","components/portraits/StimImgFernandoAlves.PNG","-44","","","","","-44","Fernando Alves","B",""
"","image-slider-response-modified","347","3376892","0.0-346.0","60062","DH-007","20:8:28","","","","","","","","","","","","assessment 7","","580","components/portraits/StimImgGraceFraser.PNG","-40","","","","","-40","Grace Fraser","B",""
"","html-keyboard-response","348","3377895","0.0-347.0","60062","DH-007","20:8:29","","","","","","","","","","","","","","null","[""<p style=\""font-size: 36px; width: 1200px; line-height: 40px;\"">Returning to the video...""]","null","","","","","","","",""
"","browser-check","349","3378895","0.0-348.0","60062","DH-007","20:8:30","1440","900","true","chrome","129.0.0","false","Mac OS","true","60.17","true","true","Browser_Check","","","","","","","","","","","",""
"","video-keyboard-response","350","3466340","0.0-349.0","60062","DH-007","20:9:57","","","","","","","","","","","","video29","","null","[""components/stim/StimVid_Undoing2.mp4""]","null","","","","","","","",""
"","image-slider-response-modified","351","3483373","0.0-350.0","60062","DH-007","20:10:14","","","","","","","","","","","","assessment 0","","17030","components/portraits/StimImgJonathanFraser.PNG","35","","","","","35","Jonathan Fraser","B",""
"","image-slider-response-modified","352","3483590","0.0-351.0","60062","DH-007","20:10:14","","","","","","","","","","","","assessment 1","","213","components/portraits/StimImgMiguelAlves.PNG","-100","","","","","-100","Miguel Alves","B",""
"","image-slider-response-modified","353","3483773","0.0-352.0","60062","DH-007","20:10:15","","","","","","","","","","","","assessment 2","","180","components/portraits/StimImgHenryFraser.PNG","-100","","","","","-100","Henry Fraser","B",""
"","image-slider-response-modified","354","3483942","0.0-353.0","60062","DH-007","20:10:15","","","","","","","","","","","","assessment 3","","166","components/portraits/StimImgElenaAlves.PNG","-100","","","","","-100","Elena Alves","B",""
"","image-slider-response-modified","355","3484126","0.0-354.0","60062","DH-007","20:10:15","","","","","","","","","","","","assessment 4","","181","components/portraits/StimImgSylviaSteinetz.PNG","-100","","","","","-100","Sylvia Steinetz","B",""
"","image-slider-response-modified","356","3484324","0.0-355.0","60062","DH-007","20:10:15","","","","","","","","","","","","assessment 5","","195","components/portraits/StimImgFranklinReinhardt.PNG","-32","","","","","-32","Franklin Reinhardt","B",""
"","image-slider-response-modified","357","3484523","0.0-356.0","60062","DH-007","20:10:15","","","","","","","","","","","","assessment 6","","195","components/portraits/StimImgFernandoAlves.PNG","-44","","","","","-44","Fernando Alves","B",""
"","image-slider-response-modified","358","3485009","0.0-357.0","60062","DH-007","20:10:16","","","","","","","","","","","","assessment 7","","483","components/portraits/StimImgGraceFraser.PNG","-40","","","","","-40","Grace Fraser","B",""
"","html-keyboard-response","359","3486012","0.0-358.0","60062","DH-007","20:10:17","","","","","","","","","","","","","","null","[""<p style=\""font-size: 36px; width: 1200px; line-height: 40px;\"">Returning to the video...""]","null","","","","","","","",""
"","browser-check","360","3487010","0.0-359.0","60062","DH-007","20:10:18","1440","900","true","chrome","129.0.0","false","Mac OS","true","60.23","true","true","Browser_Check","","","","","","","","","","","",""
"","video-keyboard-response","361","3554258","0.0-360.0","60062","DH-007","20:11:25","","","","","","","","","","","","video30","","null","[""components/stim/StimVid_Undoing2.mp4""]","null","","","","","","","",""
"","image-slider-response-modified","362","3556623","0.0-361.0","60062","DH-007","20:11:27","","","","","","","","","","","","assessment 0","","2361","components/portraits/StimImgJonathanFraser.PNG","35","","","","","35","Jonathan Fraser","B",""
"","image-slider-response-modified","363","3556774","0.0-362.0","60062","DH-007","20:11:28","","","","","","","","","","","","assessment 1","","147","components/portraits/StimImgMiguelAlves.PNG","-100","","","","","-100","Miguel Alves","B",""
"","image-slider-response-modified","364","3556939","0.0-363.0","60062","DH-007","20:11:28","","","","","","","","","","","","assessment 2","","164","components/portraits/StimImgHenryFraser.PNG","-100","","","","","-100","Henry Fraser","B",""
"","image-slider-response-modified","365","3557089","0.0-364.0","60062","DH-007","20:11:28","","","","","","","","","","","","assessment 3","","147","components/portraits/StimImgElenaAlves.PNG","-100","","","","","-100","Elena Alves","B",""
"","image-slider-response-modified","366","3557256","0.0-365.0","60062","DH-007","20:11:28","","","","","","","","","","","","assessment 4","","165","components/portraits/StimImgSylviaSteinetz.PNG","-100","","","","","-100","Sylvia Steinetz","B",""
"","image-slider-response-modified","367","3559458","0.0-366.0","60062","DH-007","20:11:30","","","","","","","","","","","","assessment 5","","2199","components/portraits/StimImgFranklinReinhardt.PNG","-32","","","","","-32","Franklin Reinhardt","B",""
"","image-slider-response-modified","368","3559756","0.0-367.0","60062","DH-007","20:11:30","","","","","","","","","","","","assessment 6","","295","components/portraits/StimImgFernandoAlves.PNG","-44","","","","","-44","Fernando Alves","B",""
"","image-slider-response-modified","369","3567957","0.0-368.0","60062","DH-007","20:11:39","","","","","","","","","","","","assessment 7","","8198","components/portraits/StimImgGraceFraser.PNG","-55","","","","","-40","Grace Fraser","B",""
"","html-keyboard-response","370","3568959","0.0-369.0","60062","DH-007","20:11:40","","","","","","","","","","","","","","null","[""<p style=\""font-size: 36px; width: 1200px; line-height: 40px;\"">Returning to the video...""]","null","","","","","","","",""
"","browser-check","371","3569959","0.0-370.0","60062","DH-007","20:11:41","1440","900","true","chrome","129.0.0","false","Mac OS","true","60.13","true","true","Browser_Check","","","","","","","","","","","",""
"","video-keyboard-response","372","3641191","0.0-371.0","60062","DH-007","20:12:52","","","","","","","","","","","","video31","","null","[""components/stim/StimVid_Undoing2.mp4""]","null","","","","","","","",""
"","image-slider-response-modified","373","3659522","0.0-372.0","60062","DH-007","20:13:10","","","","","","","","","","","","assessment 0","","18327","components/portraits/StimImgJonathanFraser.PNG","35","","","","","35","Jonathan Fraser","B",""
"","image-slider-response-modified","374","3659755","0.0-373.0","60062","DH-007","20:13:10","","","","","","","","","","","","assessment 1","","227","components/portraits/StimImgMiguelAlves.PNG","-100","","","","","-100","Miguel Alves","B",""
"","image-slider-response-modified","375","3660005","0.0-374.0","60062","DH-007","20:13:11","","","","","","","","","","","","assessment 2","","245","components/portraits/StimImgHenryFraser.PNG","-100","","","","","-100","Henry Fraser","B",""
"","image-slider-response-modified","376","3660271","0.0-375.0","60062","DH-007","20:13:11","","","","","","","","","","","","assessment 3","","264","components/portraits/StimImgElenaAlves.PNG","-100","","","","","-100","Elena Alves","B",""
"","image-slider-response-modified","377","3660488","0.0-376.0","60062","DH-007","20:13:11","","","","","","","","","","","","assessment 4","","213","components/portraits/StimImgSylviaSteinetz.PNG","-100","","","","","-100","Sylvia Steinetz","B",""
"","image-slider-response-modified","378","3660740","0.0-377.0","60062","DH-007","20:13:11","","","","","","","","","","","","assessment 5","","249","components/portraits/StimImgFranklinReinhardt.PNG","-32","","","","","-32","Franklin Reinhardt","B",""
"","image-slider-response-modified","379","3661405","0.0-378.0","60062","DH-007","20:13:12","","","","","","","","","","","","assessment 6","","661","components/portraits/StimImgFernandoAlves.PNG","-44","","","","","-44","Fernando Alves","B",""
"","image-slider-response-modified","380","3661806","0.0-379.0","60062","DH-007","20:13:13","","","","","","","","","","","","assessment 7","","397","components/portraits/StimImgGraceFraser.PNG","-55","","","","","-55","Grace Fraser","B",""
"","html-keyboard-response","381","3662808","0.0-380.0","60062","DH-007","20:13:14","","","","","","","","","","","","","","null","[""<p style=\""font-size: 36px; width: 1200px; line-height: 40px;\"">Returning to the video...""]","null","","","","","","","",""
"","browser-check","382","3663808","0.0-381.0","60062","DH-007","20:13:15","1440","900","true","chrome","129.0.0","false","Mac OS","true","60.13","true","true","Browser_Check","","","","","","","","","","","",""
"","video-keyboard-response","383","3759249","0.0-382.0","60062","DH-007","20:14:50","","","","","","","","","","","","video32","","null","[""components/stim/StimVid_Undoing2.mp4""]","null","","","","","","","",""
"","image-slider-response-modified","384","3764970","0.0-383.0","60062","DH-007","20:14:56","","","","","","","","","","","","assessment 0","","5717","components/portraits/StimImgJonathanFraser.PNG","40","","","","","35","Jonathan Fraser","B",""
"","image-slider-response-modified","385","3765288","0.0-384.0","60062","DH-007","20:14:56","","","","","","","","","","","","assessment 1","","315","components/portraits/StimImgMiguelAlves.PNG","-100","","","","","-100","Miguel Alves","B",""
"","image-slider-response-modified","386","3765456","0.0-385.0","60062","DH-007","20:14:56","","","","","","","","","","","","assessment 2","","164","components/portraits/StimImgHenryFraser.PNG","-100","","","","","-100","Henry Fraser","B",""
"","image-slider-response-modified","387","3765621","0.0-386.0","60062","DH-007","20:14:56","","","","","","","","","","","","assessment 3","","161","components/portraits/StimImgElenaAlves.PNG","-100","","","","","-100","Elena Alves","B",""
"","image-slider-response-modified","388","3765754","0.0-387.0","60062","DH-007","20:14:56","","","","","","","","","","","","assessment 4","","130","components/portraits/StimImgSylviaSteinetz.PNG","-100","","","","","-100","Sylvia Steinetz","B",""
"","image-slider-response-modified","389","3765854","0.0-388.0","60062","DH-007","20:14:57","","","","","","","","","","","","assessment 5","","98","components/portraits/StimImgFranklinReinhardt.PNG","-32","","","","","-32","Franklin Reinhardt","B",""
"","image-slider-response-modified","390","3765970","0.0-389.0","60062","DH-007","20:14:57","","","","","","","","","","","","assessment 6","","114","components/portraits/StimImgFernandoAlves.PNG","-44","","","","","-44","Fernando Alves","B",""
"","image-slider-response-modified","391","3766088","0.0-390.0","60062","DH-007","20:14:57","","","","","","","","","","","","assessment 7","","115","components/portraits/StimImgGraceFraser.PNG","-55","","","","","-55","Grace Fraser","B",""
"","html-keyboard-response","392","3767090","0.0-391.0","60062","DH-007","20:14:58","","","","","","","","","","","","","","null","[""<p style=\""font-size: 36px; width: 1200px; line-height: 40px;\"">Returning to the video...""]","null","","","","","","","",""
"","browser-check","393","3768090","0.0-392.0","60062","DH-007","20:14:59","1440","900","true","chrome","129.0.0","false","Mac OS","true","60.09","true","true","Browser_Check","","","","","","","","","","","",""
"","video-keyboard-response","394","3837497","0.0-393.0","60062","DH-007","20:16:8","","","","","","","","","","","","video33","","null","[""components/stim/StimVid_Undoing2.mp4""]","null","","","","","","","",""
"","image-slider-response-modified","395","3844970","0.0-394.0","60062","DH-007","20:16:16","","","","","","","","","","","","assessment 0","","7469","components/portraits/StimImgJonathanFraser.PNG","40","","","","","40","Jonathan Fraser","B",""
"","image-slider-response-modified","396","3845203","0.0-395.0","60062","DH-007","20:16:16","","","","","","","","","","","","assessment 1","","231","components/portraits/StimImgMiguelAlves.PNG","-100","","","","","-100","Miguel Alves","B",""
"","image-slider-response-modified","397","3845386","0.0-396.0","60062","DH-007","20:16:16","","","","","","","","","","","","assessment 2","","179","components/portraits/StimImgHenryFraser.PNG","-100","","","","","-100","Henry Fraser","B",""
"","image-slider-response-modified","398","3845603","0.0-397.0","60062","DH-007","20:16:16","","","","","","","","","","","","assessment 3","","214","components/portraits/StimImgElenaAlves.PNG","-100","","","","","-100","Elena Alves","B",""
"","image-slider-response-modified","399","3846436","0.0-398.0","60062","DH-007","20:16:17","","","","","","","","","","","","assessment 4","","830","components/portraits/StimImgSylviaSteinetz.PNG","-100","","","","","-100","Sylvia Steinetz","B",""
