"trial_id","trial_type","trial_index","time_elapsed","internal_node_id","subject_id","break_id","time","width","height","webaudio","browser","browser_version","mobile","os","fullscreen","vsync_rate","webcam","microphone","task","success","rt","stimulus","response","timeout","failed_images","failed_audio","failed_video","slider_start","character","label_condition","question_order"
"pavlovia_init","pavlovia","0","903","0.0-0.0","60603","DH-014","16:0:20","","","","","","","","","","","","","","","","","","","","","","","",""
"","browser-check","1","1919","0.0-1.0","60603","DH-014","16:0:21","1280","712","true","chrome","128.0.0","false","Mac OS","true","59.49","true","true","Browser_Check","","","","","","","","","","","",""
"","fullscreen","2","4949","0.0-2.0","60603","DH-014","16:0:24","","","","","","","","","","","","Fullscreen","true","2027","","","","","","","","","",""
"","html-keyboard-response","3","7958","0.0-3.0","60603","DH-014","16:0:27","","","","","","","","","","","","Instruction","","3007","[""<p style=\""font-size: 36px; width: 1200px; line-height: 40px;\"">During this experiment, you will watch an episode of a publicly broadcasted murder mystery television show.<br><br>It contains adult themes and graphic language. While the video will portray a character accused of a violent crime, as well as verbal descriptions of the crime, <strong>violence will not be shown</strong>, nor will any other graphic visual content.<br><br><br>If you are not comfortable with continuing, please exit this experiment now.<br><br><br><br>Otherwise, please press the <strong>SPACE BAR</strong> to continue.</p>""]"," ","","","","","","","",""
"","preload","4","8895","0.0-4.0","60603","DH-014","16:0:28","","","","","","","","","","","","Preload","true","","","","false","[]","[]","[]","","","",""
"","image-button-response-modified","5","12799","0.0-5.0","60603","DH-014","16:0:32","","","","","","","","","","","","Consent","","3902","components/consent/SONA.png","0","","","","","","","",""
"","html-keyboard-response","6","13535","0.0-6.0","60603","DH-014","16:0:33","","","","","","","","","","","","Instr_Task","","735","<p style=""font-size: 36px; width: 1200px; line-height: 40px;"">Thank you for agreeing to participate in this experiment! <br><br><br><br> Please press the <strong>SPACE BAR</strong> to continue</p>"," ","","","","","","","",""
"","html-keyboard-response","7","13847","0.0-7.0","60603","DH-014","16:0:33","","","","","","","","","","","","Instr_Task","","311","<p style=""font-size: 36px; width: 1200px; line-height: 40px;"">Before we begin, please be sure that you are in a good space to complete the experiment. This space should be: <br><br><br><br> <strong>Comfortable <br><br> Distraction-free <br><br> Available for the next 60 minutes</strong> <br><br><br><br><br> Please press the <strong>SPACE BAR</strong> to continue</p>"," ","","","","","","","",""
"","html-keyboard-response","8","14141","0.0-8.0","60603","DH-014","16:0:34","","","","","","","","","","","","Instr_Task","","293","<p style=""font-size: 36px; width: 1200px; line-height: 40px;""><strong>Please give your full attention to the experiment. This includes:</strong> <br><br><br><br> Closing or minimizing other programs on your computer <br><br> Silencing your phone or placing it somewhere it will not be distracting <br><br> Testing that your audio is working and set to a comfortable volume that you can clearly hear <br><br> Not completing this experiment with others present <br><br><br><br><br> Please press the <strong>SPACE BAR</strong> to continue</p>"," ","","","","","","","",""
"","html-keyboard-response","9","14409","0.0-9.0","60603","DH-014","16:0:34","","","","","","","","","","","","Instr_Task","","267","<p style=""font-size: 36px; width: 1200px; line-height: 40px;"">You will watch 45 minutes of a crime mystery drama in which one character is suspected of having murdered another.<br><br><br>We will present background information about the characters of the show and the surrounding context before the episode begins.<br><br><br><br> Please press the <strong>SPACE BAR</strong> to continue</p>"," ","","","","","","","",""
"","html-keyboard-response","10","14611","0.0-10.0","60603","DH-014","16:0:34","","","","","","","","","","","","Instr_Task","","201","<p style=""font-size: 36px; width: 1200px; line-height: 40px;"">The video will intermittently pause while you watch to assess how certain <strong>you</strong> are that different characters in the show are guilty or innocent of having committed the murder.<br><br><br><br> Please press the <strong>SPACE BAR</strong> to continue</p>"," ","","","","","","","",""
"","html-keyboard-response","11","14774","0.0-11.0","60603","DH-014","16:0:34","","","","","","","","","","","","Instr_Task","","162","<p style=""font-size: 36px; width: 1200px; line-height: 40px;"">These certainty assessments tend to be flexible and may shift upon hearing something that a character says or seeing something that a character does or events that occur when a character is not on screen.<br><br><br>Some of this information may influence your assessments only slightly while other information may influence your assessments a great deal.<br><br><br>When prompted, please update your rating of how certain you are of each character's innocence or guilt at that moment in time. <br><br><br> Please try to be as precise as you can.<br><br><br><br> Please press the <strong>SPACE BAR</strong> to continue</p>"," ","","","","","","","",""
"","html-keyboard-response","12","14933","0.0-12.0","60603","DH-014","16:0:34","","","","","","","","","","","","Instr_Task","","158","<p style=""font-size: 36px; width: 1200px; line-height: 40px;"">These certainty assessments will be assessed on a continuous scale. <br><br><br> The scale ranges from 100% certain that a character is guilty to 100% certain that a character is innocent.<br><br><br>Leaving the scale in the middle (i.e., 0% certain) would indicate that you are completely uncertain whether a character is innocent or guilt.<br><br><br><br> Please press the <strong>SPACE BAR</strong> to continue</p>"," ","","","","","","","",""
"","html-keyboard-response","13","15065","0.0-13.0","60603","DH-014","16:0:34","","","","","","","","","","","","Instr_Task","","131","<p style=""font-size: 36px; width: 1200px; line-height: 40px;"">After your first rating, we will mark the scale where you had last rated that character to hopefully make updating your certainty rating easier. <br><br><br>A progress bar at the top will show the order in which you will assess the characters.<br><br><br>A portrait in the center of the screen will identify which character you are assessing at that moment.<br><br><br>Let's look at an example of what this looks like.<br><br><br><br> Please press the <strong>SPACE BAR</strong> to continue</p>"," ","","","","","","","",""
"","preload","14","16125","0.0-14.0","60603","DH-014","16:0:36","","","","","","","","","","","","Preload","true","","","","false","[]","[]","[]","","","",""
"","image-slider-response-modified","15","24581","0.0-15.0","60603","DH-014","16:0:44","","","","","","","","","","","","Practice","","8452","components/portraits/StimImgJonathanFraser.PNG","-50","","","","","0","Jonathan Fraser","B",""
"","html-keyboard-response","16","25944","0.0-17.0","60603","DH-014","16:0:45","","","","","","","","","","","","PracticeSuccess","","1362","[""<p style=\""font-size: 36px; width: 1200px; line-height: 40px;\"">Great! If you have any questions that you must have answered before continuing, please contact study staff via the recruitment platform.<br><br><br>If you are ready to start, we will present the background information.<br><br><br><br> Please press the <strong>SPACE BAR</strong> to continue</p>""]"," ","","","","","","","",""
"","image-keyboard-response-modified","17","26576","0.0-18.0","60603","DH-014","16:0:46","","","","","","","","","","","","Background","","629","[""components/portraits/StimImgElenaAlves.PNG"",""components/portraits/StimImgJonathanFraser.PNG""]"," ","","","","","","","",""
"","image-keyboard-response-modified","18","26898","0.0-19.0","60603","DH-014","16:0:46","","","","","","","","","","","","Background","","321","[""components/portraits/StimImgElenaAlves.PNG"",""components/portraits/StimImgJonathanFraser.PNG""]"," ","","","","","","","",""
"","image-keyboard-response-modified","19","27064","0.0-20.0","60603","DH-014","16:0:46","","","","","","","","","","","","Background","","164","[""components/portraits/StimImgMiguelAlves.PNG"",""components/portraits/StimImgHenryFraser.PNG""]"," ","","","","","","","",""
"","image-keyboard-response-modified","20","27224","0.0-21.0","60603","DH-014","16:0:47","","","","","","","","","","","","Background","","159","[""components/portraits/StimImgFernandoAlves.PNG"",""components/portraits/StimImgGraceFraser.PNG""]"," ","","","","","","","",""
"","image-keyboard-response-modified","21","27374","0.0-22.0","60603","DH-014","16:0:47","","","","","","","","","","","","Background","","149","[""components/portraits/StimImgSylviaSteinetz.PNG"",""components/portraits/StimImgFranklinReinhardt.PNG""]"," ","","","","","","","",""
"","image-keyboard-response-modified","22","27621","0.0-23.0","60603","DH-014","16:0:47","","","","","","","","","","","","Background","","246","[""components/portraits/StimImgRobertAdelman.PNG"",""components/portraits/StimImgHaleyFitzgerald.PNG""]"," ","","","","","","","",""
"","image-keyboard-response-modified","23","27799","0.0-24.0","60603","DH-014","16:0:47","","","","","","","","","","","","Background","","177","[""components/portraits/StimImgJoeMendoza.PNG""]"," ","","","","","","","",""
"","html-keyboard-response","24","27976","0.0-25.0","60603","DH-014","16:0:47","","","","","","","","","","","","Instr_ExpStart","","176","[""<p style=\""font-size: 36px; width: 1200px; line-height: 40px;\"">The experiment will now start! <br><br><br><br> Please press the <strong>SPACE BAR</strong> to continue</p>""]"," ","","","","","","","",""
"","preload","25","90235","0.0-26.0","60603","DH-014","16:1:50","","","","","","","","","","","","Preload","true","","","","false","[]","[]","[]","","","",""
"","browser-check","26","91234","0.0-27.0","60603","DH-014","16:1:51","1280","800","true","chrome","128.0.0","false","Mac OS","true","60.31","true","true","Browser_Check","","","","","","","","","","","",""
"","video-keyboard-response","27","171551","0.0-28.0","60603","DH-014","16:3:11","","","","","","","","","","","","video 0","","null","[""components/stim/StimVid_Undoing1.mp4""]","null","","","","","","","",""
"","image-slider-response-modified","28","182896","0.0-29.0","60603","DH-014","16:3:22","","","","","","","","","","","","assessment 0","","11341","components/portraits/StimImgJonathanFraser.PNG","-43","","","","","0","Jonathan Fraser","B",""
"","image-slider-response-modified","29","194013","0.0-30.0","60603","DH-014","16:3:33","","","","","","","","","","","","assessment 1","","11114","components/portraits/StimImgMiguelAlves.PNG","-100","","","","","0","Miguel Alves","B",""
"","image-slider-response-modified","30","196945","0.0-31.0","60603","DH-014","16:3:36","","","","","","","","","","","","assessment 2","","2930","components/portraits/StimImgElenaAlves.PNG","-12","","","","","0","Elena Alves","B",""
"","image-slider-response-modified","31","199747","0.0-32.0","60603","DH-014","16:3:39","","","","","","","","","","","","assessment 3","","2797","components/portraits/StimImgHenryFraser.PNG","24","","","","","0","Henry Fraser","B",""
"","image-slider-response-modified","32","202946","0.0-33.0","60603","DH-014","16:3:42","","","","","","","","","","","","assessment 4","","3194","components/portraits/StimImgGraceFraser.PNG","42","","","","","0","Grace Fraser","B",""
"","image-slider-response-modified","33","205879","0.0-34.0","60603","DH-014","16:3:45","","","","","","","","","","","","assessment 5","","2929","components/portraits/StimImgSylviaSteinetz.PNG","-12","","","","","0","Sylvia Steinetz","B",""
"","image-slider-response-modified","34","207979","0.0-35.0","60603","DH-014","16:3:47","","","","","","","","","","","","assessment 6","","2096","components/portraits/StimImgFernandoAlves.PNG","18","","","","","0","Fernando Alves","B",""
"","image-slider-response-modified","35","210130","0.0-36.0","60603","DH-014","16:3:50","","","","","","","","","","","","assessment 7","","2147","components/portraits/StimImgFranklinReinhardt.PNG","76","","","","","0","Franklin Reinhardt","B",""
"","html-keyboard-response","36","211136","0.0-37.0","60603","DH-014","16:3:51","","","","","","","","","","","","","","null","[""<p style=\""font-size: 36px; width: 1200px; line-height: 40px;\"">Returning to the video...""]","null","","","","","","","",""
"","browser-check","37","212132","0.0-38.0","60603","DH-014","16:3:52","1280","800","true","chrome","128.0.0","false","Mac OS","true","60.37","true","true","Browser_Check","","","","","","","","","","","",""
"","video-keyboard-response","38","285031","0.0-39.0","60603","DH-014","16:5:4","","","","","","","","","","","","video 1","","null","[""components/stim/StimVid_Undoing1.mp4""]","null","","","","","","","",""
"","image-slider-response-modified","39","289945","0.0-40.0","60603","DH-014","16:5:9","","","","","","","","","","","","assessment 0","","4910","components/portraits/StimImgJonathanFraser.PNG","-43","","","","","-43","Jonathan Fraser","B",""
"","image-slider-response-modified","40","290996","0.0-41.0","60603","DH-014","16:5:10","","","","","","","","","","","","assessment 1","","1047","components/portraits/StimImgMiguelAlves.PNG","-100","","","","","-100","Miguel Alves","B",""
"","image-slider-response-modified","41","291479","0.0-42.0","60603","DH-014","16:5:11","","","","","","","","","","","","assessment 2","","479","components/portraits/StimImgElenaAlves.PNG","-12","","","","","-12","Elena Alves","B",""
"","image-slider-response-modified","42","292245","0.0-43.0","60603","DH-014","16:5:12","","","","","","","","","","","","assessment 3","","762","components/portraits/StimImgHenryFraser.PNG","24","","","","","24","Henry Fraser","B",""
"","image-slider-response-modified","43","298095","0.0-44.0","60603","DH-014","16:5:18","","","","","","","","","","","","assessment 4","","5847","components/portraits/StimImgGraceFraser.PNG","42","","","","","42","Grace Fraser","B",""
"","image-slider-response-modified","44","298445","0.0-45.0","60603","DH-014","16:5:18","","","","","","","","","","","","assessment 5","","346","components/portraits/StimImgSylviaSteinetz.PNG","-12","","","","","-12","Sylvia Steinetz","B",""
"","image-slider-response-modified","45","298728","0.0-46.0","60603","DH-014","16:5:18","","","","","","","","","","","","assessment 6","","278","components/portraits/StimImgFernandoAlves.PNG","18","","","","","18","Fernando Alves","B",""
"","image-slider-response-modified","46","299162","0.0-47.0","60603","DH-014","16:5:19","","","","","","","","","","","","assessment 7","","432","components/portraits/StimImgFranklinReinhardt.PNG","76","","","","","76","Franklin Reinhardt","B",""
"","html-keyboard-response","47","300170","0.0-48.0","60603","DH-014","16:5:20","","","","","","","","","","","","","","null","[""<p style=\""font-size: 36px; width: 1200px; line-height: 40px;\"">Returning to the video...""]","null","","","","","","","",""
"","browser-check","48","301165","0.0-49.0","60603","DH-014","16:5:21","1280","800","true","chrome","128.0.0","false","Mac OS","true","60.45","true","true","Browser_Check","","","","","","","","","","","",""
"","video-keyboard-response","49","390494","0.0-50.0","60603","DH-014","16:6:50","","","","","","","","","","","","video 2","","null","[""components/stim/StimVid_Undoing1.mp4""]","null","","","","","","","",""
"","image-slider-response-modified","50","392861","0.0-51.0","60603","DH-014","16:6:52","","","","","","","","","","","","assessment 0","","2363","components/portraits/StimImgJonathanFraser.PNG","-43","","","","","-43","Jonathan Fraser","B",""
"","image-slider-response-modified","51","393093","0.0-52.0","60603","DH-014","16:6:53","","","","","","","","","","","","assessment 1","","228","components/portraits/StimImgMiguelAlves.PNG","-100","","","","","-100","Miguel Alves","B",""
"","image-slider-response-modified","52","393277","0.0-53.0","60603","DH-014","16:6:53","","","","","","","","","","","","assessment 2","","182","components/portraits/StimImgElenaAlves.PNG","-12","","","","","-12","Elena Alves","B",""
"","image-slider-response-modified","53","393460","0.0-54.0","60603","DH-014","16:6:53","","","","","","","","","","","","assessment 3","","181","components/portraits/StimImgHenryFraser.PNG","24","","","","","24","Henry Fraser","B",""
"","image-slider-response-modified","54","393677","0.0-55.0","60603","DH-014","16:6:53","","","","","","","","","","","","assessment 4","","214","components/portraits/StimImgGraceFraser.PNG","42","","","","","42","Grace Fraser","B",""
"","image-slider-response-modified","55","393895","0.0-56.0","60603","DH-014","16:6:53","","","","","","","","","","","","assessment 5","","217","components/portraits/StimImgSylviaSteinetz.PNG","-12","","","","","-12","Sylvia Steinetz","B",""
"","image-slider-response-modified","56","394111","0.0-57.0","60603","DH-014","16:6:54","","","","","","","","","","","","assessment 6","","213","components/portraits/StimImgFernandoAlves.PNG","18","","","","","18","Fernando Alves","B",""
"","image-slider-response-modified","57","394311","0.0-58.0","60603","DH-014","16:6:54","","","","","","","","","","","","assessment 7","","196","components/portraits/StimImgFranklinReinhardt.PNG","76","","","","","76","Franklin Reinhardt","B",""
"","html-keyboard-response","58","395318","0.0-59.0","60603","DH-014","16:6:55","","","","","","","","","","","","","","null","[""<p style=\""font-size: 36px; width: 1200px; line-height: 40px;\"">Returning to the video...""]","null","","","","","","","",""
"","browser-check","59","396314","0.0-60.0","60603","DH-014","16:6:56","1280","800","true","chrome","128.0.0","false","Mac OS","true","60.37","true","true","Browser_Check","","","","","","","","","","","",""
"","video-keyboard-response","60","473693","0.0-61.0","60603","DH-014","16:8:13","","","","","","","","","","","","video 3","","null","[""components/stim/StimVid_Undoing1.mp4""]","null","","","","","","","",""
"","image-slider-response-modified","61","474911","0.0-62.0","60603","DH-014","16:8:14","","","","","","","","","","","","assessment 0","","1214","components/portraits/StimImgJonathanFraser.PNG","-43","","","","","-43","Jonathan Fraser","B",""
"","image-slider-response-modified","62","475160","0.0-63.0","60603","DH-014","16:8:15","","","","","","","","","","","","assessment 1","","245","components/portraits/StimImgMiguelAlves.PNG","-100","","","","","-100","Miguel Alves","B",""
"","image-slider-response-modified","63","475276","0.0-64.0","60603","DH-014","16:8:15","","","","","","","","","","","","assessment 2","","112","components/portraits/StimImgElenaAlves.PNG","-12","","","","","-12","Elena Alves","B",""
"","image-slider-response-modified","64","475460","0.0-65.0","60603","DH-014","16:8:15","","","","","","","","","","","","assessment 3","","182","components/portraits/StimImgHenryFraser.PNG","24","","","","","24","Henry Fraser","B",""
"","image-slider-response-modified","65","475593","0.0-66.0","60603","DH-014","16:8:15","","","","","","","","","","","","assessment 4","","129","components/portraits/StimImgGraceFraser.PNG","42","","","","","42","Grace Fraser","B",""
"","image-slider-response-modified","66","476110","0.0-67.0","60603","DH-014","16:8:16","","","","","","","","","","","","assessment 5","","515","components/portraits/StimImgSylviaSteinetz.PNG","-12","","","","","-12","Sylvia Steinetz","B",""
"","image-slider-response-modified","67","488210","0.0-68.0","60603","DH-014","16:8:28","","","","","","","","","","","","assessment 6","","12099","components/portraits/StimImgFernandoAlves.PNG","4","","","","","18","Fernando Alves","B",""
"","image-slider-response-modified","68","496127","0.0-69.0","60603","DH-014","16:8:36","","","","","","","","","","","","assessment 7","","7914","components/portraits/StimImgFranklinReinhardt.PNG","-65","","","","","76","Franklin Reinhardt","B",""
"","html-keyboard-response","69","497131","0.0-70.0","60603","DH-014","16:8:37","","","","","","","","","","","","","","null","[""<p style=\""font-size: 36px; width: 1200px; line-height: 40px;\"">Returning to the video...""]","null","","","","","","","",""
"","browser-check","70","498130","0.0-71.0","60603","DH-014","16:8:38","1280","800","true","chrome","128.0.0","false","Mac OS","true","60.25","true","true","Browser_Check","","","","","","","","","","","",""
"","video-keyboard-response","71","565408","0.0-72.0","60603","DH-014","16:9:45","","","","","","","","","","","","video 4","","null","[""components/stim/StimVid_Undoing1.mp4""]","null","","","","","","","",""
"","image-slider-response-modified","72","568728","0.0-73.0","60603","DH-014","16:9:48","","","","","","","","","","","","assessment 0","","3316","components/portraits/StimImgJonathanFraser.PNG","53","","","","","-43","Jonathan Fraser","B",""
"","image-slider-response-modified","73","569676","0.0-74.0","60603","DH-014","16:9:49","","","","","","","","","","","","assessment 1","","946","components/portraits/StimImgMiguelAlves.PNG","-100","","","","","-100","Miguel Alves","B",""
"","image-slider-response-modified","74","570659","0.0-75.0","60603","DH-014","16:9:50","","","","","","","","","","","","assessment 2","","982","components/portraits/StimImgElenaAlves.PNG","-12","","","","","-12","Elena Alves","B",""
"","image-slider-response-modified","75","573610","0.0-76.0","60603","DH-014","16:9:53","","","","","","","","","","","","assessment 3","","2947","components/portraits/StimImgHenryFraser.PNG","0","","","","","24","Henry Fraser","B",""
"","image-slider-response-modified","76","576893","0.0-77.0","60603","DH-014","16:9:56","","","","","","","","","","","","assessment 4","","3279","components/portraits/StimImgGraceFraser.PNG","67","","","","","42","Grace Fraser","B",""
"","image-slider-response-modified","77","582777","0.0-78.0","60603","DH-014","16:10:2","","","","","","","","","","","","assessment 5","","5881","components/portraits/StimImgSylviaSteinetz.PNG","0","","","","","-12","Sylvia Steinetz","B",""
"","image-slider-response-modified","78","585042","0.0-79.0","60603","DH-014","16:10:4","","","","","","","","","","","","assessment 6","","2261","components/portraits/StimImgFernandoAlves.PNG","1","","","","","4","Fernando Alves","B",""
"","image-slider-response-modified","79","586926","0.0-80.0","60603","DH-014","16:10:6","","","","","","","","","","","","assessment 7","","1881","components/portraits/StimImgFranklinReinhardt.PNG","-65","","","","","-65","Franklin Reinhardt","B",""
"","html-keyboard-response","80","587934","0.0-81.0","60603","DH-014","16:10:7","","","","","","","","","","","","","","null","[""<p style=\""font-size: 36px; width: 1200px; line-height: 40px;\"">Returning to the video...""]","null","","","","","","","",""
"","browser-check","81","588929","0.0-82.0","60603","DH-014","16:10:8","1280","800","true","chrome","128.0.0","false","Mac OS","true","60.4","true","true","Browser_Check","","","","","","","","","","","",""
"","video-keyboard-response","82","668169","0.0-83.0","60603","DH-014","16:11:28","","","","","","","","","","","","video 5","","null","[""components/stim/StimVid_Undoing1.mp4""]","null","","","","","","","",""
"","image-slider-response-modified","83","687275","0.0-84.0","60603","DH-014","16:11:47","","","","","","","","","","","","assessment 0","","19103","components/portraits/StimImgJonathanFraser.PNG","53","","","","","53","Jonathan Fraser","B",""
"","image-slider-response-modified","84","687543","0.0-85.0","60603","DH-014","16:11:47","","","","","","","","","","","","assessment 1","","264","components/portraits/StimImgMiguelAlves.PNG","-100","","","","","-100","Miguel Alves","B",""
"","image-slider-response-modified","85","687725","0.0-86.0","60603","DH-014","16:11:47","","","","","","","","","","","","assessment 2","","179","components/portraits/StimImgElenaAlves.PNG","-12","","","","","-12","Elena Alves","B",""
"","image-slider-response-modified","86","687874","0.0-87.0","60603","DH-014","16:11:47","","","","","","","","","","","","assessment 3","","144","components/portraits/StimImgHenryFraser.PNG","0","","","","","0","Henry Fraser","B",""
"","image-slider-response-modified","87","688142","0.0-88.0","60603","DH-014","16:11:48","","","","","","","","","","","","assessment 4","","268","components/portraits/StimImgGraceFraser.PNG","67","","","","","67","Grace Fraser","B",""
"","image-slider-response-modified","88","688309","0.0-89.0","60603","DH-014","16:11:48","","","","","","","","","","","","assessment 5","","162","components/portraits/StimImgSylviaSteinetz.PNG","0","","","","","0","Sylvia Steinetz","B",""
"","image-slider-response-modified","89","688509","0.0-90.0","60603","DH-014","16:11:48","","","","","","","","","","","","assessment 6","","196","components/portraits/StimImgFernandoAlves.PNG","1","","","","","1","Fernando Alves","B",""
"","image-slider-response-modified","90","688691","0.0-91.0","60603","DH-014","16:11:48","","","","","","","","","","","","assessment 7","","179","components/portraits/StimImgFranklinReinhardt.PNG","-65","","","","","-65","Franklin Reinhardt","B",""
"","html-keyboard-response","91","689698","0.0-92.0","60603","DH-014","16:11:49","","","","","","","","","","","","","","null","[""<p style=\""font-size: 36px; width: 1200px; line-height: 40px;\"">Returning to the video...""]","null","","","","","","","",""
"","browser-check","92","690696","0.0-93.0","60603","DH-014","16:11:50","1280","800","true","chrome","128.0.0","false","Mac OS","true","60.26","true","true","Browser_Check","","","","","","","","","","","",""
"","video-keyboard-response","93","784006","0.0-94.0","60603","DH-014","16:13:23","","","","","","","","","","","","video 6","","null","[""components/stim/StimVid_Undoing1.mp4""]","null","","","","","","","",""
"","image-slider-response-modified","94","787808","0.0-95.0","60603","DH-014","16:13:27","","","","","","","","","","","","assessment 0","","3799","components/portraits/StimImgJonathanFraser.PNG","42","","","","","53","Jonathan Fraser","B",""
"","image-slider-response-modified","95","788410","0.0-96.0","60603","DH-014","16:13:28","","","","","","","","","","","","assessment 1","","599","components/portraits/StimImgMiguelAlves.PNG","-100","","","","","-100","Miguel Alves","B",""
"","image-slider-response-modified","96","789341","0.0-97.0","60603","DH-014","16:13:29","","","","","","","","","","","","assessment 2","","928","components/portraits/StimImgElenaAlves.PNG","-12","","","","","-12","Elena Alves","B",""
"","image-slider-response-modified","97","789942","0.0-98.0","60603","DH-014","16:13:29","","","","","","","","","","","","assessment 3","","596","components/portraits/StimImgHenryFraser.PNG","0","","","","","0","Henry Fraser","B",""
"","image-slider-response-modified","98","792491","0.0-99.0","60603","DH-014","16:13:32","","","","","","","","","","","","assessment 4","","2546","components/portraits/StimImgGraceFraser.PNG","37","","","","","67","Grace Fraser","B",""
"","image-slider-response-modified","99","792958","0.0-100.0","60603","DH-014","16:13:32","","","","","","","","","","","","assessment 5","","463","components/portraits/StimImgSylviaSteinetz.PNG","0","","","","","0","Sylvia Steinetz","B",""
"","image-slider-response-modified","100","793260","0.0-101.0","60603","DH-014","16:13:33","","","","","","","","","","","","assessment 6","","299","components/portraits/StimImgFernandoAlves.PNG","1","","","","","1","Fernando Alves","B",""
"","image-slider-response-modified","101","793841","0.0-102.0","60603","DH-014","16:13:33","","","","","","","","","","","","assessment 7","","577","components/portraits/StimImgFranklinReinhardt.PNG","-65","","","","","-65","Franklin Reinhardt","B",""
"","html-keyboard-response","102","794844","0.0-103.0","60603","DH-014","16:13:34","","","","","","","","","","","","","","null","[""<p style=\""font-size: 36px; width: 1200px; line-height: 40px;\"">Returning to the video...""]","null","","","","","","","",""
"","browser-check","103","795845","0.0-104.0","60603","DH-014","16:13:35","1280","800","true","chrome","128.0.0","false","Mac OS","true","60.06","true","true","Browser_Check","","","","","","","","","","","",""
"","video-keyboard-response","104","883078","0.0-105.0","60603","DH-014","16:15:2","","","","","","","","","","","","video 7","","null","[""components/stim/StimVid_Undoing1.mp4""]","null","","","","","","","",""
"","image-slider-response-modified","105","884691","0.0-106.0","60603","DH-014","16:15:4","","","","","","","","","","","","assessment 0","","1609","components/portraits/StimImgJonathanFraser.PNG","42","","","","","42","Jonathan Fraser","B",""
"","image-slider-response-modified","106","884858","0.0-107.0","60603","DH-014","16:15:4","","","","","","","","","","","","assessment 1","","163","components/portraits/StimImgMiguelAlves.PNG","-100","","","","","-100","Miguel Alves","B",""
"","image-slider-response-modified","107","885040","0.0-108.0","60603","DH-014","16:15:4","","","","","","","","","","","","assessment 2","","179","components/portraits/StimImgElenaAlves.PNG","-12","","","","","-12","Elena Alves","B",""
"","image-slider-response-modified","108","885657","0.0-109.0","60603","DH-014","16:15:5","","","","","","","","","","","","assessment 3","","613","components/portraits/StimImgHenryFraser.PNG","0","","","","","0","Henry Fraser","B",""
"","image-slider-response-modified","109","888724","0.0-110.0","60603","DH-014","16:15:8","","","","","","","","","","","","assessment 4","","3063","components/portraits/StimImgGraceFraser.PNG","-12","","","","","37","Grace Fraser","B",""
"","image-slider-response-modified","110","890242","0.0-111.0","60603","DH-014","16:15:10","","","","","","","","","","","","assessment 5","","1514","components/portraits/StimImgSylviaSteinetz.PNG","0","","","","","0","Sylvia Steinetz","B",""
"","image-slider-response-modified","111","890957","0.0-112.0","60603","DH-014","16:15:10","","","","","","","","","","","","assessment 6","","711","components/portraits/StimImgFernandoAlves.PNG","1","","","","","1","Fernando Alves","B",""
"","image-slider-response-modified","112","891757","0.0-113.0","60603","DH-014","16:15:11","","","","","","","","","","","","assessment 7","","796","components/portraits/StimImgFranklinReinhardt.PNG","-65","","","","","-65","Franklin Reinhardt","B",""
"","html-keyboard-response","113","892759","0.0-114.0","60603","DH-014","16:15:12","","","","","","","","","","","","","","null","[""<p style=\""font-size: 36px; width: 1200px; line-height: 40px;\"">Returning to the video...""]","null","","","","","","","",""
"","browser-check","114","893777","0.0-115.0","60603","DH-014","16:15:13","1280","800","true","chrome","128.0.0","false","Mac OS","true","60.01","true","true","Browser_Check","","","","","","","","","","","",""
"","video-keyboard-response","115","963218","0.0-116.0","60603","DH-014","16:16:23","","","","","","","","","","","","video 8","","null","[""components/stim/StimVid_Undoing1.mp4""]","null","","","","","","","",""
"","image-slider-response-modified","116","966390","0.0-117.0","60603","DH-014","16:16:26","","","","","","","","","","","","assessment 0","","3169","components/portraits/StimImgJonathanFraser.PNG","42","","","","","42","Jonathan Fraser","B",""
"","image-slider-response-modified","117","966589","0.0-118.0","60603","DH-014","16:16:26","","","","","","","","","","","","assessment 1","","194","components/portraits/StimImgMiguelAlves.PNG","-100","","","","","-100","Miguel Alves","B",""
"","image-slider-response-modified","118","966722","0.0-119.0","60603","DH-014","16:16:26","","","","","","","","","","","","assessment 2","","131","components/portraits/StimImgElenaAlves.PNG","-12","","","","","-12","Elena Alves","B",""
"","image-slider-response-modified","119","966889","0.0-120.0","60603","DH-014","16:16:26","","","","","","","","","","","","assessment 3","","165","components/portraits/StimImgHenryFraser.PNG","0","","","","","0","Henry Fraser","B",""
"","image-slider-response-modified","120","967038","0.0-121.0","60603","DH-014","16:16:26","","","","","","","","","","","","assessment 4","","146","components/portraits/StimImgGraceFraser.PNG","-12","","","","","-12","Grace Fraser","B",""
"","image-slider-response-modified","121","967656","0.0-122.0","60603","DH-014","16:16:27","","","","","","","","","","","","assessment 5","","615","components/portraits/StimImgSylviaSteinetz.PNG","0","","","","","0","Sylvia Steinetz","B",""
"","image-slider-response-modified","122","967990","0.0-123.0","60603","DH-014","16:16:27","","","","","","","","","","","","assessment 6","","329","components/portraits/StimImgFernandoAlves.PNG","1","","","","","1","Fernando Alves","B",""
"","image-slider-response-modified","123","968409","0.0-124.0","60603","DH-014","16:16:28","","","","","","","","","","","","assessment 7","","415","components/portraits/StimImgFranklinReinhardt.PNG","-65","","","","","-65","Franklin Reinhardt","B",""
"","html-keyboard-response","124","969415","0.0-125.0","60603","DH-014","16:16:29","","","","","","","","","","","","","","null","[""<p style=\""font-size: 36px; width: 1200px; line-height: 40px;\"">Returning to the video...""]","null","","","","","","","",""
"","browser-check","125","970409","0.0-126.0","60603","DH-014","16:16:30","1280","800","true","chrome","128.0.0","false","Mac OS","true","60.48","true","true","Browser_Check","","","","","","","","","","","",""
"","video-keyboard-response","126","1037709","0.0-127.0","60603","DH-014","16:17:37","","","","","","","","","","","","video 9","","null","[""components/stim/StimVid_Undoing1.mp4""]","null","","","","","","","",""
"","image-slider-response-modified","127","1042272","0.0-128.0","60603","DH-014","16:17:42","","","","","","","","","","","","assessment 0","","4560","components/portraits/StimImgJonathanFraser.PNG","49","","","","","42","Jonathan Fraser","B",""
"","image-slider-response-modified","128","1042589","0.0-129.0","60603","DH-014","16:17:42","","","","","","","","","","","","assessment 1","","313","components/portraits/StimImgMiguelAlves.PNG","-100","","","","","-100","Miguel Alves","B",""
"","image-slider-response-modified","129","1042822","0.0-130.0","60603","DH-014","16:17:42","","","","","","","","","","","","assessment 2","","230","components/portraits/StimImgElenaAlves.PNG","-12","","","","","-12","Elena Alves","B",""
"","image-slider-response-modified","130","1043006","0.0-131.0","60603","DH-014","16:17:42","","","","","","","","","","","","assessment 3","","180","components/portraits/StimImgHenryFraser.PNG","0","","","","","0","Henry Fraser","B",""
"","image-slider-response-modified","131","1043190","0.0-132.0","60603","DH-014","16:17:43","","","","","","","","","","","","assessment 4","","181","components/portraits/StimImgGraceFraser.PNG","-12","","","","","-12","Grace Fraser","B",""
"","image-slider-response-modified","132","1043338","0.0-133.0","60603","DH-014","16:17:43","","","","","","","","","","","","assessment 5","","144","components/portraits/StimImgSylviaSteinetz.PNG","0","","","","","0","Sylvia Steinetz","B",""
"","image-slider-response-modified","133","1043505","0.0-134.0","60603","DH-014","16:17:43","","","","","","","","","","","","assessment 6","","164","components/portraits/StimImgFernandoAlves.PNG","1","","","","","1","Fernando Alves","B",""
"","image-slider-response-modified","134","1043655","0.0-135.0","60603","DH-014","16:17:43","","","","","","","","","","","","assessment 7","","148","components/portraits/StimImgFranklinReinhardt.PNG","-65","","","","","-65","Franklin Reinhardt","B",""
"","html-keyboard-response","135","1044661","0.0-136.0","60603","DH-014","16:17:44","","","","","","","","","","","","","","null","[""<p style=\""font-size: 36px; width: 1200px; line-height: 40px;\"">Returning to the video...""]","null","","","","","","","",""
"","browser-check","136","1045658","0.0-137.0","60603","DH-014","16:17:45","1280","800","true","chrome","128.0.0","false","Mac OS","true","60.33","true","true","Browser_Check","","","","","","","","","","","",""
"","video-keyboard-response","137","1124896","0.0-138.0","60603","DH-014","16:19:4","","","","","","","","","","","","video 10","","null","[""components/stim/StimVid_Undoing1.mp4""]","null","","","","","","","",""
"","image-slider-response-modified","138","1130554","0.0-139.0","60603","DH-014","16:19:10","","","","","","","","","","","","assessment 0","","5654","components/portraits/StimImgJonathanFraser.PNG","49","","","","","49","Jonathan Fraser","B",""
"","image-slider-response-modified","139","1131638","0.0-140.0","60603","DH-014","16:19:11","","","","","","","","","","","","assessment 1","","1081","components/portraits/StimImgMiguelAlves.PNG","-100","","","","","-100","Miguel Alves","B",""
"","image-slider-response-modified","140","1132555","0.0-141.0","60603","DH-014","16:19:12","","","","","","","","","","","","assessment 2","","913","components/portraits/StimImgElenaAlves.PNG","-12","","","","","-12","Elena Alves","B",""
"","image-slider-response-modified","141","1133588","0.0-142.0","60603","DH-014","16:19:13","","","","","","","","","","","","assessment 3","","1030","components/portraits/StimImgHenryFraser.PNG","0","","","","","0","Henry Fraser","B",""
"","image-slider-response-modified","142","1134721","0.0-143.0","60603","DH-014","16:19:14","","","","","","","","","","","","assessment 4","","1129","components/portraits/StimImgGraceFraser.PNG","-12","","","","","-12","Grace Fraser","B",""
"","image-slider-response-modified","143","1135471","0.0-144.0","60603","DH-014","16:19:15","","","","","","","","","","","","assessment 5","","746","components/portraits/StimImgSylviaSteinetz.PNG","0","","","","","0","Sylvia Steinetz","B",""
"","image-slider-response-modified","144","1136805","0.0-145.0","60603","DH-014","16:19:16","","","","","","","","","","","","assessment 6","","1330","components/portraits/StimImgFernandoAlves.PNG","1","","","","","1","Fernando Alves","B",""
"","image-slider-response-modified","145","1141954","0.0-146.0","60603","DH-014","16:19:21","","","","","","","","","","","","assessment 7","","5146","components/portraits/StimImgFranklinReinhardt.PNG","-96","","","","","-65","Franklin Reinhardt","B",""
"","html-keyboard-response","146","1142960","0.0-147.0","60603","DH-014","16:19:22","","","","","","","","","","","","","","null","[""<p style=\""font-size: 36px; width: 1200px; line-height: 40px;\"">Returning to the video...""]","null","","","","","","","",""
"","browser-check","147","1143958","0.0-148.0","60603","DH-014","16:19:23","1280","800","true","chrome","128.0.0","false","Mac OS","true","60.26","true","true","Browser_Check","","","","","","","","","","","",""
"","video-keyboard-response","148","1229298","0.0-149.0","60603","DH-014","16:20:49","","","","","","","","","","","","video 11","","null","[""components/stim/StimVid_Undoing1.mp4""]","null","","","","","","","",""
"","image-slider-response-modified","149","1230904","0.0-150.0","60603","DH-014","16:20:50","","","","","","","","","","","","assessment 0","","1601","components/portraits/StimImgJonathanFraser.PNG","49","","","","","49","Jonathan Fraser","B",""
"","image-slider-response-modified","150","1231086","0.0-151.0","60603","DH-014","16:20:50","","","","","","","","","","","","assessment 1","","179","components/portraits/StimImgMiguelAlves.PNG","-100","","","","","-100","Miguel Alves","B",""
"","image-slider-response-modified","151","1231237","0.0-152.0","60603","DH-014","16:20:51","","","","","","","","","","","","assessment 2","","148","components/portraits/StimImgElenaAlves.PNG","-12","","","","","-12","Elena Alves","B",""
"","image-slider-response-modified","152","1231370","0.0-153.0","60603","DH-014","16:20:51","","","","","","","","","","","","assessment 3","","129","components/portraits/StimImgHenryFraser.PNG","0","","","","","0","Henry Fraser","B",""
"","image-slider-response-modified","153","1231520","0.0-154.0","60603","DH-014","16:20:51","","","","","","","","","","","","assessment 4","","148","components/portraits/StimImgGraceFraser.PNG","-12","","","","","-12","Grace Fraser","B",""
"","image-slider-response-modified","154","1231670","0.0-155.0","60603","DH-014","16:20:51","","","","","","","","","","","","assessment 5","","148","components/portraits/StimImgSylviaSteinetz.PNG","0","","","","","0","Sylvia Steinetz","B",""
"","image-slider-response-modified","155","1232003","0.0-156.0","60603","DH-014","16:20:51","","","","","","","","","","","","assessment 6","","331","components/portraits/StimImgFernandoAlves.PNG","1","","","","","1","Fernando Alves","B",""
"","image-slider-response-modified","156","1232337","0.0-157.0","60603","DH-014","16:20:52","","","","","","","","","","","","assessment 7","","330","components/portraits/StimImgFranklinReinhardt.PNG","-96","","","","","-96","Franklin Reinhardt","B",""
"","html-keyboard-response","157","1233342","0.0-158.0","60603","DH-014","16:20:53","","","","","","","","","","","","","","null","[""<p style=\""font-size: 36px; width: 1200px; line-height: 40px;\"">Returning to the video...""]","null","","","","","","","",""
"","browser-check","158","1234340","0.0-159.0","60603","DH-014","16:20:54","1280","800","true","chrome","128.0.0","false","Mac OS","true","60.19","true","true","Browser_Check","","","","","","","","","","","",""
"","video-keyboard-response","159","1329528","0.0-160.0","60603","DH-014","16:22:29","","","","","","","","","","","","video 12","","null","[""components/stim/StimVid_Undoing1.mp4""]","null","","","","","","","",""
"","image-slider-response-modified","160","1331603","0.0-161.0","60603","DH-014","16:22:31","","","","","","","","","","","","assessment 0","","2071","components/portraits/StimImgJonathanFraser.PNG","49","","","","","49","Jonathan Fraser","B",""
"","image-slider-response-modified","161","1332703","0.0-162.0","60603","DH-014","16:22:32","","","","","","","","","","","","assessment 1","","1096","components/portraits/StimImgMiguelAlves.PNG","-100","","","","","-100","Miguel Alves","B",""
"","image-slider-response-modified","162","1333186","0.0-163.0","60603","DH-014","16:22:33","","","","","","","","","","","","assessment 2","","479","components/portraits/StimImgElenaAlves.PNG","-12","","","","","-12","Elena Alves","B",""
"","image-slider-response-modified","163","1337238","0.0-164.0","60603","DH-014","16:22:37","","","","","","","","","","","","assessment 3","","4049","components/portraits/StimImgHenryFraser.PNG","-53","","","","","0","Henry Fraser","B",""
"","image-slider-response-modified","164","1337619","0.0-165.0","60603","DH-014","16:22:37","","","","","","","","","","","","assessment 4","","377","components/portraits/StimImgGraceFraser.PNG","-12","","","","","-12","Grace Fraser","B",""
"","image-slider-response-modified","165","1337785","0.0-166.0","60603","DH-014","16:22:37","","","","","","","","","","","","assessment 5","","161","components/portraits/StimImgSylviaSteinetz.PNG","0","","","","","0","Sylvia Steinetz","B",""
"","image-slider-response-modified","166","1338254","0.0-167.0","60603","DH-014","16:22:38","","","","","","","","","","","","assessment 6","","467","components/portraits/StimImgFernandoAlves.PNG","1","","","","","1","Fernando Alves","B",""
"","image-slider-response-modified","167","1338752","0.0-168.0","60603","DH-014","16:22:38","","","","","","","","","","","","assessment 7","","495","components/portraits/StimImgFranklinReinhardt.PNG","-96","","","","","-96","Franklin Reinhardt","B",""
"","html-keyboard-response","168","1339756","0.0-169.0","60603","DH-014","16:22:39","","","","","","","","","","","","","","null","[""<p style=\""font-size: 36px; width: 1200px; line-height: 40px;\"">Returning to the video...""]","null","","","","","","","",""
"","browser-check","169","1340756","0.0-170.0","60603","DH-014","16:22:40","1280","800","true","chrome","128.0.0","false","Mac OS","true","60.14","true","true","Browser_Check","","","","","","","","","","","",""
"","video-keyboard-response","170","1431945","0.0-171.0","60603","DH-014","16:24:11","","","","","","","","","","","","video 13","","null","[""components/stim/StimVid_Undoing1.mp4""]","null","","","","","","","",""
"","image-slider-response-modified","171","1433303","0.0-172.0","60603","DH-014","16:24:13","","","","","","","","","","","","assessment 0","","1354","components/portraits/StimImgJonathanFraser.PNG","49","","","","","49","Jonathan Fraser","B",""
"","image-slider-response-modified","172","1433519","0.0-173.0","60603","DH-014","16:24:13","","","","","","","","","","","","assessment 1","","212","components/portraits/StimImgMiguelAlves.PNG","-100","","","","","-100","Miguel Alves","B",""
"","image-slider-response-modified","173","1433737","0.0-174.0","60603","DH-014","16:24:13","","","","","","","","","","","","assessment 2","","214","components/portraits/StimImgElenaAlves.PNG","-12","","","","","-12","Elena Alves","B",""
"","image-slider-response-modified","174","1434002","0.0-175.0","60603","DH-014","16:24:13","","","","","","","","","","","","assessment 3","","261","components/portraits/StimImgHenryFraser.PNG","-53","","","","","-53","Henry Fraser","B",""
"","image-slider-response-modified","175","1438236","0.0-176.0","60603","DH-014","16:24:18","","","","","","","","","","","","assessment 4","","4230","components/portraits/StimImgGraceFraser.PNG","-5","","","","","-12","Grace Fraser","B",""
"","image-slider-response-modified","176","1439019","0.0-177.0","60603","DH-014","16:24:18","","","","","","","","","","","","assessment 5","","779","components/portraits/StimImgSylviaSteinetz.PNG","0","","","","","0","Sylvia Steinetz","B",""
"","image-slider-response-modified","177","1439603","0.0-178.0","60603","DH-014","16:24:19","","","","","","","","","","","","assessment 6","","578","components/portraits/StimImgFernandoAlves.PNG","1","","","","","1","Fernando Alves","B",""
"","image-slider-response-modified","178","1440035","0.0-179.0","60603","DH-014","16:24:19","","","","","","","","","","","","assessment 7","","428","components/portraits/StimImgFranklinReinhardt.PNG","-96","","","","","-96","Franklin Reinhardt","B",""
"","html-keyboard-response","179","1441041","0.0-180.0","60603","DH-014","16:24:20","","","","","","","","","","","","","","null","[""<p style=\""font-size: 36px; width: 1200px; line-height: 40px;\"">Returning to the video...""]","null","","","","","","","",""
"","browser-check","180","1442038","0.0-181.0","60603","DH-014","16:24:21","1280","800","true","chrome","128.0.0","false","Mac OS","true","60.32","true","true","Browser_Check","","","","","","","","","","","",""
"","video-keyboard-response","181","1525310","0.0-182.0","60603","DH-014","16:25:45","","","","","","","","","","","","video 14","","null","[""components/stim/StimVid_Undoing1.mp4""]","null","","","","","","","",""
"","image-slider-response-modified","182","1526929","0.0-183.0","60603","DH-014","16:25:46","","","","","","","","","","","","assessment 0","","1615","components/portraits/StimImgJonathanFraser.PNG","49","","","","","49","Jonathan Fraser","B",""
"","image-slider-response-modified","183","1527078","0.0-184.0","60603","DH-014","16:25:46","","","","","","","","","","","","assessment 1","","145","components/portraits/StimImgMiguelAlves.PNG","-100","","","","","-100","Miguel Alves","B",""
"","image-slider-response-modified","184","1527211","0.0-185.0","60603","DH-014","16:25:47","","","","","","","","","","","","assessment 2","","131","components/portraits/StimImgElenaAlves.PNG","-12","","","","","-12","Elena Alves","B",""
"","image-slider-response-modified","185","1527462","0.0-186.0","60603","DH-014","16:25:47","","","","","","","","","","","","assessment 3","","249","components/portraits/StimImgHenryFraser.PNG","-53","","","","","-53","Henry Fraser","B",""
"","image-slider-response-modified","186","1527578","0.0-187.0","60603","DH-014","16:25:47","","","","","","","","","","","","assessment 4","","112","components/portraits/StimImgGraceFraser.PNG","-5","","","","","-5","Grace Fraser","B",""
"","image-slider-response-modified","187","1527711","0.0-188.0","60603","DH-014","16:25:47","","","","","","","","","","","","assessment 5","","131","components/portraits/StimImgSylviaSteinetz.PNG","0","","","","","0","Sylvia Steinetz","B",""
"","image-slider-response-modified","188","1527845","0.0-189.0","60603","DH-014","16:25:47","","","","","","","","","","","","assessment 6","","131","components/portraits/StimImgFernandoAlves.PNG","1","","","","","1","Fernando Alves","B",""
"","image-slider-response-modified","189","1527979","0.0-190.0","60603","DH-014","16:25:47","","","","","","","","","","","","assessment 7","","132","components/portraits/StimImgFranklinReinhardt.PNG","-96","","","","","-96","Franklin Reinhardt","B",""
"","html-keyboard-response","190","1528981","0.0-191.0","60603","DH-014","16:25:48","","","","","","","","","","","","","","null","[""<p style=\""font-size: 36px; width: 1200px; line-height: 40px;\"">Returning to the video...""]","null","","","","","","","",""
"","browser-check","191","1529982","0.0-192.0","60603","DH-014","16:25:49","1280","800","true","chrome","128.0.0","false","Mac OS","true","60.04","true","true","Browser_Check","","","","","","","","","","","",""
"","video-keyboard-response","192","1653336","0.0-193.0","60603","DH-014","16:27:53","","","","","","","","","","","","video 15","","null","[""components/stim/StimVid_Undoing1.mp4""]","null","","","","","","","",""
"","image-slider-response-modified","193","1663181","0.0-194.0","60603","DH-014","16:28:3","","","","","","","","","","","","assessment 0","","9841","components/portraits/StimImgJonathanFraser.PNG","49","","","","","49","Jonathan Fraser","B",""
"","image-slider-response-modified","194","1663346","0.0-195.0","60603","DH-014","16:28:3","","","","","","","","","","","","assessment 1","","161","components/portraits/StimImgMiguelAlves.PNG","-100","","","","","-100","Miguel Alves","B",""
"","image-slider-response-modified","195","1663496","0.0-196.0","60603","DH-014","16:28:3","","","","","","","","","","","","assessment 2","","148","components/portraits/StimImgElenaAlves.PNG","-12","","","","","-12","Elena Alves","B",""
"","image-slider-response-modified","196","1664279","0.0-197.0","60603","DH-014","16:28:4","","","","","","","","","","","","assessment 3","","781","components/portraits/StimImgHenryFraser.PNG","-53","","","","","-53","Henry Fraser","B",""
"","image-slider-response-modified","197","1664613","0.0-198.0","60603","DH-014","16:28:4","","","","","","","","","","","","assessment 4","","330","components/portraits/StimImgGraceFraser.PNG","-5","","","","","-5","Grace Fraser","B",""
"","image-slider-response-modified","198","1665164","0.0-199.0","60603","DH-014","16:28:5","","","","","","","","","","","","assessment 5","","547","components/portraits/StimImgSylviaSteinetz.PNG","0","","","","","0","Sylvia Steinetz","B",""
"","image-slider-response-modified","199","1665365","0.0-200.0","60603","DH-014","16:28:5","","","","","","","","","","","","assessment 6","","199","components/portraits/StimImgFernandoAlves.PNG","1","","","","","1","Fernando Alves","B",""
"","image-slider-response-modified","200","1665713","0.0-201.0","60603","DH-014","16:28:5","","","","","","","","","","","","assessment 7","","345","components/portraits/StimImgFranklinReinhardt.PNG","-96","","","","","-96","Franklin Reinhardt","B",""
"","html-keyboard-response","201","1666720","0.0-202.0","60603","DH-014","16:28:6","","","","","","","","","","","","","","null","[""<p style=\""font-size: 36px; width: 1200px; line-height: 40px;\"">Returning to the video...""]","null","","","","","","","",""
"","browser-check","202","1667716","0.0-203.0","60603","DH-014","16:28:7","1280","800","true","chrome","128.0.0","false","Mac OS","true","60.38","true","true","Browser_Check","","","","","","","","","","","",""
"","video-keyboard-response","203","1737132","0.0-204.0","60603","DH-014","16:29:17","","","","","","","","","","","","video 16","","null","[""components/stim/StimVid_Undoing1.mp4""]","null","","","","","","","",""
"","image-slider-response-modified","204","1738647","0.0-205.0","60603","DH-014","16:29:18","","","","","","","","","","","","assessment 0","","1510","components/portraits/StimImgJonathanFraser.PNG","49","","","","","49","Jonathan Fraser","B",""
"","image-slider-response-modified","205","1738813","0.0-206.0","60603","DH-014","16:29:18","","","","","","","","","","","","assessment 1","","162","components/portraits/StimImgMiguelAlves.PNG","-100","","","","","-100","Miguel Alves","B",""
"","image-slider-response-modified","206","1738963","0.0-207.0","60603","DH-014","16:29:18","","","","","","","","","","","","assessment 2","","148","components/portraits/StimImgElenaAlves.PNG","-12","","","","","-12","Elena Alves","B",""
"","image-slider-response-modified","207","1739131","0.0-208.0","60603","DH-014","16:29:19","","","","","","","","","","","","assessment 3","","163","components/portraits/StimImgHenryFraser.PNG","-53","","","","","-53","Henry Fraser","B",""
"","image-slider-response-modified","208","1739296","0.0-209.0","60603","DH-014","16:29:19","","","","","","","","","","","","assessment 4","","162","components/portraits/StimImgGraceFraser.PNG","-5","","","","","-5","Grace Fraser","B",""
"","image-slider-response-modified","209","1739530","0.0-210.0","60603","DH-014","16:29:19","","","","","","","","","","","","assessment 5","","230","components/portraits/StimImgSylviaSteinetz.PNG","0","","","","","0","Sylvia Steinetz","B",""
"","image-slider-response-modified","210","1739813","0.0-211.0","60603","DH-014","16:29:19","","","","","","","","","","","","assessment 6","","281","components/portraits/StimImgFernandoAlves.PNG","1","","","","","1","Fernando Alves","B",""
"","image-slider-response-modified","211","1740032","0.0-212.0","60603","DH-014","16:29:19","","","","","","","","","","","","assessment 7","","216","components/portraits/StimImgFranklinReinhardt.PNG","-96","","","","","-96","Franklin Reinhardt","B",""
"","html-keyboard-response","212","1741038","0.0-213.0","60603","DH-014","16:29:20","","","","","","","","","","","","","","null","[""<p style=\""font-size: 36px; width: 1200px; line-height: 40px;\"">Returning to the video...""]","null","","","","","","","",""
"","browser-check","213","1742032","0.0-214.0","60603","DH-014","16:29:21","1280","800","true","chrome","128.0.0","false","Mac OS","true","60.44","true","true","Browser_Check","","","","","","","","","","","",""
"","preload","214","1799198","0.0-215.0","60603","DH-014","16:30:19","","","","","","","","","","","","Preload","true","","","","false","[]","[]","[]","","","",""
"","video-keyboard-response","215","1817477","0.0-216.0","60603","DH-014","","","","","","","","","","","","","video 17","","null","[""components/stim/StimVid_Undoing1.mp4""]","null","","","","","","","",""
"","video-keyboard-response","216","1884767","0.0-217.0","60603","DH-014","","","","","","","","","","","","","video 18","","null","[""components/stim/StimVid_Undoing2.mp4""]","null","","","","","","","",""
"","image-slider-response-modified","217","3570792","0.0-218.0","60603","DH-014","16:59:50","","","","","","","","","","","","assessment 0","","441981","components/portraits/StimImgJonathanFraser.PNG","49","","","","","49","Jonathan Fraser","B",""
"","image-slider-response-modified","218","3570958","0.0-219.0","60603","DH-014","16:59:50","","","","","","","","","","","","assessment 1","","164","components/portraits/StimImgMiguelAlves.PNG","-100","","","","","-100","Miguel Alves","B",""
"","image-slider-response-modified","219","3571109","0.0-220.0","60603","DH-014","16:59:51","","","","","","","","","","","","assessment 2","","149","components/portraits/StimImgElenaAlves.PNG","-12","","","","","-12","Elena Alves","B",""
"","image-slider-response-modified","220","3571242","0.0-221.0","60603","DH-014","16:59:51","","","","","","","","","","","","assessment 3","","132","components/portraits/StimImgHenryFraser.PNG","-53","","","","","-53","Henry Fraser","B",""
"","image-slider-response-modified","221","3571508","0.0-222.0","60603","DH-014","16:59:51","","","","","","","","","","","","assessment 4","","264","components/portraits/StimImgGraceFraser.PNG","-5","","","","","-5","Grace Fraser","B",""
"","image-slider-response-modified","222","3571642","0.0-223.0","60603","DH-014","16:59:51","","","","","","","","","","","","assessment 5","","132","components/portraits/StimImgSylviaSteinetz.PNG","0","","","","","0","Sylvia Steinetz","B",""
"","image-slider-response-modified","223","3571793","0.0-224.0","60603","DH-014","16:59:51","","","","","","","","","","","","assessment 6","","149","components/portraits/StimImgFernandoAlves.PNG","1","","","","","1","Fernando Alves","B",""
"","image-slider-response-modified","224","3572243","0.0-225.0","60603","DH-014","16:59:52","","","","","","","","","","","","assessment 7","","449","components/portraits/StimImgFranklinReinhardt.PNG","-96","","","","","-96","Franklin Reinhardt","B",""
"","html-keyboard-response","225","3573247","0.0-226.0","60603","DH-014","16:59:53","","","","","","","","","","","","","","null","[""<p style=\""font-size: 36px; width: 1200px; line-height: 40px;\"">Returning to the video...""]","null","","","","","","","",""
"","browser-check","226","3574247","0.0-227.0","60603","DH-014","16:59:54","1280","800","true","chrome","128.0.0","false","Mac OS","true","60.16","true","true","Browser_Check","","","","","","","","","","","",""
"","video-keyboard-response","227","3655679","0.0-228.0","60603","DH-014","17:1:15","","","","","","","","","","","","video18","","null","[""components/stim/StimVid_Undoing2.mp4""]","null","","","","","","","",""
"","image-slider-response-modified","228","3658027","0.0-229.0","60603","DH-014","17:1:17","","","","","","","","","","","","assessment 0","","2345","components/portraits/StimImgJonathanFraser.PNG","49","","","","","49","Jonathan Fraser","B",""
"","image-slider-response-modified","229","3658393","0.0-230.0","60603","DH-014","17:1:18","","","","","","","","","","","","assessment 1","","361","components/portraits/StimImgMiguelAlves.PNG","-100","","","","","-100","Miguel Alves","B",""
"","image-slider-response-modified","230","3658594","0.0-231.0","60603","DH-014","17:1:18","","","","","","","","","","","","assessment 2","","198","components/portraits/StimImgElenaAlves.PNG","-12","","","","","-12","Elena Alves","B",""
"","image-slider-response-modified","231","3658777","0.0-232.0","60603","DH-014","17:1:18","","","","","","","","","","","","assessment 3","","180","components/portraits/StimImgHenryFraser.PNG","-53","","","","","-53","Henry Fraser","B",""
"","image-slider-response-modified","232","3659210","0.0-233.0","60603","DH-014","17:1:19","","","","","","","","","","","","assessment 4","","430","components/portraits/StimImgGraceFraser.PNG","-5","","","","","-5","Grace Fraser","B",""
"","image-slider-response-modified","233","3659393","0.0-234.0","60603","DH-014","17:1:19","","","","","","","","","","","","assessment 5","","180","components/portraits/StimImgSylviaSteinetz.PNG","0","","","","","0","Sylvia Steinetz","B",""
"","image-slider-response-modified","234","3659542","0.0-235.0","60603","DH-014","17:1:19","","","","","","","","","","","","assessment 6","","146","components/portraits/StimImgFernandoAlves.PNG","1","","","","","1","Fernando Alves","B",""
"","image-slider-response-modified","235","3659692","0.0-236.0","60603","DH-014","17:1:19","","","","","","","","","","","","assessment 7","","146","components/portraits/StimImgFranklinReinhardt.PNG","-96","","","","","-96","Franklin Reinhardt","B",""
"","html-keyboard-response","236","3660699","0.0-237.0","60603","DH-014","17:1:20","","","","","","","","","","","","","","null","[""<p style=\""font-size: 36px; width: 1200px; line-height: 40px;\"">Returning to the video...""]","null","","","","","","","",""
"","browser-check","237","3661696","0.0-238.0","60603","DH-014","17:1:21","1280","800","true","chrome","128.0.0","false","Mac OS","true","60.3","true","true","Browser_Check","","","","","","","","","","","",""
"","video-keyboard-response","238","3740957","0.0-239.0","60603","DH-014","17:2:40","","","","","","","","","","","","video19","","null","[""components/stim/StimVid_Undoing2.mp4""]","null","","","","","","","",""
"","image-slider-response-modified","239","3743376","0.0-240.0","60603","DH-014","17:2:43","","","","","","","","","","","","assessment 0","","2415","components/portraits/StimImgJonathanFraser.PNG","49","","","","","49","Jonathan Fraser","B",""
"","image-slider-response-modified","240","3743542","0.0-241.0","60603","DH-014","17:2:43","","","","","","","","","","","","assessment 1","","162","components/portraits/StimImgMiguelAlves.PNG","-100","","","","","-100","Miguel Alves","B",""
"","image-slider-response-modified","241","3743692","0.0-242.0","60603","DH-014","17:2:43","","","","","","","","","","","","assessment 2","","148","components/portraits/StimImgElenaAlves.PNG","-12","","","","","-12","Elena Alves","B",""
"","image-slider-response-modified","242","3743842","0.0-243.0","60603","DH-014","17:2:43","","","","","","","","","","","","assessment 3","","148","components/portraits/StimImgHenryFraser.PNG","-53","","","","","-53","Henry Fraser","B",""
"","image-slider-response-modified","243","3743976","0.0-244.0","60603","DH-014","17:2:43","","","","","","","","","","","","assessment 4","","132","components/portraits/StimImgGraceFraser.PNG","-5","","","","","-5","Grace Fraser","B",""
"","image-slider-response-modified","244","3744142","0.0-245.0","60603","DH-014","17:2:44","","","","","","","","","","","","assessment 5","","164","components/portraits/StimImgSylviaSteinetz.PNG","0","","","","","0","Sylvia Steinetz","B",""
"","image-slider-response-modified","245","3744292","0.0-246.0","60603","DH-014","17:2:44","","","","","","","","","","","","assessment 6","","148","components/portraits/StimImgFernandoAlves.PNG","1","","","","","1","Fernando Alves","B",""
"","image-slider-response-modified","246","3744727","0.0-247.0","60603","DH-014","17:2:44","","","","","","","","","","","","assessment 7","","432","components/portraits/StimImgFranklinReinhardt.PNG","-96","","","","","-96","Franklin Reinhardt","B",""
"","html-keyboard-response","247","3745733","0.0-248.0","60603","DH-014","17:2:45","","","","","","","","","","","","","","null","[""<p style=\""font-size: 36px; width: 1200px; line-height: 40px;\"">Returning to the video...""]","null","","","","","","","",""
"","browser-check","248","3746730","0.0-249.0","60603","DH-014","17:2:46","1280","800","true","chrome","128.0.0","false","Mac OS","true","60.33","true","true","Browser_Check","","","","","","","","","","","",""
"","video-keyboard-response","249","3815923","0.0-250.0","60603","DH-014","17:3:55","","","","","","","","","","","","video20","","null","[""components/stim/StimVid_Undoing2.mp4""]","null","","","","","","","",""
"","image-slider-response-modified","250","3824211","0.0-251.0","60603","DH-014","17:4:4","","","","","","","","","","","","assessment 0","","8285","components/portraits/StimImgJonathanFraser.PNG","49","","","","","49","Jonathan Fraser","B",""
"","image-slider-response-modified","251","3824392","0.0-252.0","60603","DH-014","17:4:4","","","","","","","","","","","","assessment 1","","177","components/portraits/StimImgMiguelAlves.PNG","-100","","","","","-100","Miguel Alves","B",""
"","image-slider-response-modified","252","3824543","0.0-253.0","60603","DH-014","17:4:4","","","","","","","","","","","","assessment 2","","148","components/portraits/StimImgElenaAlves.PNG","-12","","","","","-12","Elena Alves","B",""
"","image-slider-response-modified","253","3825077","0.0-254.0","60603","DH-014","17:4:4","","","","","","","","","","","","assessment 3","","530","components/portraits/StimImgHenryFraser.PNG","-53","","","","","-53","Henry Fraser","B",""
"","image-slider-response-modified","254","3825262","0.0-255.0","60603","DH-014","17:4:5","","","","","","","","","","","","assessment 4","","181","components/portraits/StimImgGraceFraser.PNG","-5","","","","","-5","Grace Fraser","B",""
"","image-slider-response-modified","255","3825392","0.0-256.0","60603","DH-014","17:4:5","","","","","","","","","","","","assessment 5","","127","components/portraits/StimImgSylviaSteinetz.PNG","0","","","","","0","Sylvia Steinetz","B",""
"","image-slider-response-modified","256","3825559","0.0-257.0","60603","DH-014","17:4:5","","","","","","","","","","","","assessment 6","","165","components/portraits/StimImgFernandoAlves.PNG","1","","","","","1","Fernando Alves","B",""
"","image-slider-response-modified","257","3825693","0.0-258.0","60603","DH-014","17:4:5","","","","","","","","","","","","assessment 7","","129","components/portraits/StimImgFranklinReinhardt.PNG","-96","","","","","-96","Franklin Reinhardt","B",""
"","html-keyboard-response","258","3826695","0.0-259.0","60603","DH-014","17:4:6","","","","","","","","","","","","","","null","[""<p style=\""font-size: 36px; width: 1200px; line-height: 40px;\"">Returning to the video...""]","null","","","","","","","",""
"","browser-check","259","3827696","0.0-260.0","60603","DH-014","17:4:7","1280","800","true","chrome","128.0.0","false","Mac OS","true","60.07","true","true","Browser_Check","","","","","","","","","","","",""
"","video-keyboard-response","260","3913075","0.0-261.0","60603","DH-014","17:5:32","","","","","","","","","","","","video21","","null","[""components/stim/StimVid_Undoing2.mp4""]","null","","","","","","","",""
"","image-slider-response-modified","261","3921176","0.0-262.0","60603","DH-014","17:5:41","","","","","","","","","","","","assessment 0","","8097","components/portraits/StimImgJonathanFraser.PNG","49","","","","","49","Jonathan Fraser","B",""
"","image-slider-response-modified","262","3921325","0.0-263.0","60603","DH-014","17:5:41","","","","","","","","","","","","assessment 1","","145","components/portraits/StimImgMiguelAlves.PNG","-100","","","","","-100","Miguel Alves","B",""
"","image-slider-response-modified","263","3921475","0.0-264.0","60603","DH-014","17:5:41","","","","","","","","","","","","assessment 2","","148","components/portraits/StimImgElenaAlves.PNG","-12","","","","","-12","Elena Alves","B",""
"","image-slider-response-modified","264","3921610","0.0-265.0","60603","DH-014","17:5:41","","","","","","","","","","","","assessment 3","","130","components/portraits/StimImgHenryFraser.PNG","-53","","","","","-53","Henry Fraser","B",""
"","image-slider-response-modified","265","3921758","0.0-266.0","60603","DH-014","17:5:41","","","","","","","","","","","","assessment 4","","146","components/portraits/StimImgGraceFraser.PNG","-5","","","","","-5","Grace Fraser","B",""
"","image-slider-response-modified","266","3921891","0.0-267.0","60603","DH-014","17:5:41","","","","","","","","","","","","assessment 5","","128","components/portraits/StimImgSylviaSteinetz.PNG","0","","","","","0","Sylvia Steinetz","B",""
"","image-slider-response-modified","267","3922042","0.0-268.0","60603","DH-014","17:5:41","","","","","","","","","","","","assessment 6","","149","components/portraits/StimImgFernandoAlves.PNG","1","","","","","1","Fernando Alves","B",""
"","image-slider-response-modified","268","3922193","0.0-269.0","60603","DH-014","17:5:42","","","","","","","","","","","","assessment 7","","149","components/portraits/StimImgFranklinReinhardt.PNG","-96","","","","","-96","Franklin Reinhardt","B",""
"","html-keyboard-response","269","3923195","0.0-270.0","60603","DH-014","17:5:43","","","","","","","","","","","","","","null","[""<p style=\""font-size: 36px; width: 1200px; line-height: 40px;\"">Returning to the video...""]","null","","","","","","","",""
"","browser-check","270","3924196","0.0-271.0","60603","DH-014","17:5:44","1280","800","true","chrome","128.0.0","false","Mac OS","true","60.07","true","true","Browser_Check","","","","","","","","","","","",""
"","video-keyboard-response","271","4027633","0.0-272.0","60603","DH-014","17:7:27","","","","","","","","","","","","video22","","null","[""components/stim/StimVid_Undoing2.mp4""]","null","","","","","","","",""
"","image-slider-response-modified","272","4034108","0.0-273.0","60603","DH-014","17:7:34","","","","","","","","","","","","assessment 0","","6471","components/portraits/StimImgJonathanFraser.PNG","49","","","","","49","Jonathan Fraser","B",""
"","image-slider-response-modified","273","4034292","0.0-274.0","60603","DH-014","17:7:34","","","","","","","","","","","","assessment 1","","181","components/portraits/StimImgMiguelAlves.PNG","-100","","","","","-100","Miguel Alves","B",""
"","image-slider-response-modified","274","4034408","0.0-275.0","60603","DH-014","17:7:34","","","","","","","","","","","","assessment 2","","113","components/portraits/StimImgElenaAlves.PNG","-12","","","","","-12","Elena Alves","B",""
"","image-slider-response-modified","275","4034859","0.0-276.0","60603","DH-014","17:7:34","","","","","","","","","","","","assessment 3","","448","components/portraits/StimImgHenryFraser.PNG","-53","","","","","-53","Henry Fraser","B",""
"","image-slider-response-modified","276","4035041","0.0-277.0","60603","DH-014","17:7:34","","","","","","","","","","","","assessment 4","","179","components/portraits/StimImgGraceFraser.PNG","-5","","","","","-5","Grace Fraser","B",""
"","image-slider-response-modified","277","4035175","0.0-278.0","60603","DH-014","17:7:35","","","","","","","","","","","","assessment 5","","130","components/portraits/StimImgSylviaSteinetz.PNG","0","","","","","0","Sylvia Steinetz","B",""
"","image-slider-response-modified","278","4035325","0.0-279.0","60603","DH-014","17:7:35","","","","","","","","","","","","assessment 6","","148","components/portraits/StimImgFernandoAlves.PNG","1","","","","","1","Fernando Alves","B",""
"","image-slider-response-modified","279","4035492","0.0-280.0","60603","DH-014","17:7:35","","","","","","","","","","","","assessment 7","","164","components/portraits/StimImgFranklinReinhardt.PNG","-96","","","","","-96","Franklin Reinhardt","B",""
"","html-keyboard-response","280","4036499","0.0-281.0","60603","DH-014","17:7:36","","","","","","","","","","","","","","null","[""<p style=\""font-size: 36px; width: 1200px; line-height: 40px;\"">Returning to the video...""]","null","","","","","","","",""
"","browser-check","281","4037495","0.0-282.0","60603","DH-014","17:7:37","1280","800","true","chrome","128.0.0","false","Mac OS","true","60.39","true","true","Browser_Check","","","","","","","","","","","",""
"","video-keyboard-response","282","4108784","0.0-283.0","60603","DH-014","17:8:48","","","","","","","","","","","","video23","","null","[""components/stim/StimVid_Undoing2.mp4""]","null","","","","","","","",""
"","image-slider-response-modified","283","4113211","0.0-284.0","60603","DH-014","17:8:53","","","","","","","","","","","","assessment 0","","4422","components/portraits/StimImgJonathanFraser.PNG","49","","","","","49","Jonathan Fraser","B",""
"","image-slider-response-modified","284","4114460","0.0-285.0","60603","DH-014","17:8:54","","","","","","","","","","","","assessment 1","","1246","components/portraits/StimImgMiguelAlves.PNG","-100","","","","","-100","Miguel Alves","B",""
"","image-slider-response-modified","285","4116108","0.0-286.0","60603","DH-014","17:8:56","","","","","","","","","","","","assessment 2","","1644","components/portraits/StimImgElenaAlves.PNG","-12","","","","","-12","Elena Alves","B",""
"","image-slider-response-modified","286","4117008","0.0-287.0","60603","DH-014","17:8:56","","","","","","","","","","","","assessment 3","","896","components/portraits/StimImgHenryFraser.PNG","-53","","","","","-53","Henry Fraser","B",""
"","image-slider-response-modified","287","4118025","0.0-288.0","60603","DH-014","17:8:57","","","","","","","","","","","","assessment 4","","1013","components/portraits/StimImgGraceFraser.PNG","-5","","","","","-5","Grace Fraser","B",""
"","image-slider-response-modified","288","4118391","0.0-289.0","60603","DH-014","17:8:58","","","","","","","","","","","","assessment 5","","362","components/portraits/StimImgSylviaSteinetz.PNG","0","","","","","0","Sylvia Steinetz","B",""
"","image-slider-response-modified","289","4120926","0.0-290.0","60603","DH-014","17:9:0","","","","","","","","","","","","assessment 6","","2531","components/portraits/StimImgFernandoAlves.PNG","21","","","","","1","Fernando Alves","B",""
"","image-slider-response-modified","290","4121609","0.0-291.0","60603","DH-014","17:9:1","","","","","","","","","","","","assessment 7","","678","components/portraits/StimImgFranklinReinhardt.PNG","-96","","","","","-96","Franklin Reinhardt","B",""
"","html-keyboard-response","291","4122615","0.0-292.0","60603","DH-014","17:9:2","","","","","","","","","","","","","","null","[""<p style=\""font-size: 36px; width: 1200px; line-height: 40px;\"">Returning to the video...""]","null","","","","","","","",""
"","browser-check","292","4123611","0.0-293.0","60603","DH-014","17:9:3","1280","800","true","chrome","128.0.0","false","Mac OS","true","60.33","true","true","Browser_Check","","","","","","","","","","","",""
"","video-keyboard-response","293","4201044","0.0-294.0","60603","DH-014","17:10:20","","","","","","","","","","","","video24","","null","[""components/stim/StimVid_Undoing2.mp4""]","null","","","","","","","",""
"","image-slider-response-modified","294","4202574","0.0-295.0","60603","DH-014","17:10:22","","","","","","","","","","","","assessment 0","","1526","components/portraits/StimImgJonathanFraser.PNG","49","","","","","49","Jonathan Fraser","B",""
"","image-slider-response-modified","295","4202773","0.0-296.0","60603","DH-014","17:10:22","","","","","","","","","","","","assessment 1","","194","components/portraits/StimImgMiguelAlves.PNG","-100","","","","","-100","Miguel Alves","B",""
"","image-slider-response-modified","296","4202907","0.0-297.0","60603","DH-014","17:10:22","","","","","","","","","","","","assessment 2","","132","components/portraits/StimImgElenaAlves.PNG","-12","","","","","-12","Elena Alves","B",""
"","image-slider-response-modified","297","4203074","0.0-298.0","60603","DH-014","17:10:22","","","","","","","","","","","","assessment 3","","165","components/portraits/StimImgHenryFraser.PNG","-53","","","","","-53","Henry Fraser","B",""
"","image-slider-response-modified","298","4203358","0.0-299.0","60603","DH-014","17:10:23","","","","","","","","","","","","assessment 4","","280","components/portraits/StimImgGraceFraser.PNG","-5","","","","","-5","Grace Fraser","B",""
"","image-slider-response-modified","299","4203524","0.0-300.0","60603","DH-014","17:10:23","","","","","","","","","","","","assessment 5","","161","components/portraits/StimImgSylviaSteinetz.PNG","0","","","","","0","Sylvia Steinetz","B",""
"","image-slider-response-modified","300","4203677","0.0-301.0","60603","DH-014","17:10:23","","","","","","","","","","","","assessment 6","","150","components/portraits/StimImgFernandoAlves.PNG","21","","","","","21","Fernando Alves","B",""
"","image-slider-response-modified","301","4203857","0.0-302.0","60603","DH-014","17:10:23","","","","","","","","","","","","assessment 7","","177","components/portraits/StimImgFranklinReinhardt.PNG","-96","","","","","-96","Franklin Reinhardt","B",""
"","html-keyboard-response","302","4204859","0.0-303.0","60603","DH-014","17:10:24","","","","","","","","","","","","","","null","[""<p style=\""font-size: 36px; width: 1200px; line-height: 40px;\"">Returning to the video...""]","null","","","","","","","",""
"","browser-check","303","4205861","0.0-304.0","60603","DH-014","17:10:25","1280","800","true","chrome","128.0.0","false","Mac OS","true","60.03","true","true","Browser_Check","","","","","","","","","","","",""
"","video-keyboard-response","304","4293105","0.0-305.0","60603","DH-014","17:11:53","","","","","","","","","","","","video25","","null","[""components/stim/StimVid_Undoing2.mp4""]","null","","","","","","","",""
"","image-slider-response-modified","305","4299609","0.0-306.0","60603","DH-014","17:11:59","","","","","","","","","","","","assessment 0","","6501","components/portraits/StimImgJonathanFraser.PNG","49","","","","","49","Jonathan Fraser","B",""
"","image-slider-response-modified","306","4299790","0.0-307.0","60603","DH-014","17:11:59","","","","","","","","","","","","assessment 1","","177","components/portraits/StimImgMiguelAlves.PNG","-100","","","","","-100","Miguel Alves","B",""
"","image-slider-response-modified","307","4300041","0.0-308.0","60603","DH-014","17:11:59","","","","","","","","","","","","assessment 2","","249","components/portraits/StimImgElenaAlves.PNG","-12","","","","","-12","Elena Alves","B",""
"","image-slider-response-modified","308","4300190","0.0-309.0","60603","DH-014","17:12:0","","","","","","","","","","","","assessment 3","","146","components/portraits/StimImgHenryFraser.PNG","-53","","","","","-53","Henry Fraser","B",""
"","image-slider-response-modified","309","4300440","0.0-310.0","60603","DH-014","17:12:0","","","","","","","","","","","","assessment 4","","246","components/portraits/StimImgGraceFraser.PNG","-5","","","","","-5","Grace Fraser","B",""
"","image-slider-response-modified","310","4300775","0.0-311.0","60603","DH-014","17:12:0","","","","","","","","","","","","assessment 5","","332","components/portraits/StimImgSylviaSteinetz.PNG","0","","","","","0","Sylvia Steinetz","B",""
"","image-slider-response-modified","311","4300957","0.0-312.0","60603","DH-014","17:12:0","","","","","","","","","","","","assessment 6","","178","components/portraits/StimImgFernandoAlves.PNG","21","","","","","21","Fernando Alves","B",""
"","image-slider-response-modified","312","4301275","0.0-313.0","60603","DH-014","17:12:1","","","","","","","","","","","","assessment 7","","312","components/portraits/StimImgFranklinReinhardt.PNG","-96","","","","","-96","Franklin Reinhardt","B",""
"","html-keyboard-response","313","4302277","0.0-314.0","60603","DH-014","17:12:2","","","","","","","","","","","","","","null","[""<p style=\""font-size: 36px; width: 1200px; line-height: 40px;\"">Returning to the video...""]","null","","","","","","","",""
"","browser-check","314","4303277","0.0-315.0","60603","DH-014","17:12:3","1280","800","true","chrome","128.0.0","false","Mac OS","true","60.1","true","true","Browser_Check","","","","","","","","","","","",""
"","video-keyboard-response","315","4374587","0.0-316.0","60603","DH-014","17:13:14","","","","","","","","","","","","video26","","null","[""components/stim/StimVid_Undoing2.mp4""]","null","","","","","","","",""
"","image-slider-response-modified","316","4389091","0.0-317.0","60603","DH-014","17:13:29","","","","","","","","","","","","assessment 0","","14500","components/portraits/StimImgJonathanFraser.PNG","49","","","","","49","Jonathan Fraser","B",""
"","image-slider-response-modified","317","4389273","0.0-318.0","60603","DH-014","17:13:29","","","","","","","","","","","","assessment 1","","178","components/portraits/StimImgMiguelAlves.PNG","-100","","","","","-100","Miguel Alves","B",""
"","image-slider-response-modified","318","4389389","0.0-319.0","60603","DH-014","17:13:29","","","","","","","","","","","","assessment 2","","113","components/portraits/StimImgElenaAlves.PNG","-12","","","","","-12","Elena Alves","B",""
"","image-slider-response-modified","319","4389523","0.0-320.0","60603","DH-014","17:13:29","","","","","","","","","","","","assessment 3","","131","components/portraits/StimImgHenryFraser.PNG","-53","","","","","-53","Henry Fraser","B",""
"","image-slider-response-modified","320","4389640","0.0-321.0","60603","DH-014","17:13:29","","","","","","","","","","","","assessment 4","","115","components/portraits/StimImgGraceFraser.PNG","-5","","","","","-5","Grace Fraser","B",""
"","image-slider-response-modified","321","4389773","0.0-322.0","60603","DH-014","17:13:29","","","","","","","","","","","","assessment 5","","131","components/portraits/StimImgSylviaSteinetz.PNG","0","","","","","0","Sylvia Steinetz","B",""
"","image-slider-response-modified","322","4389906","0.0-323.0","60603","DH-014","17:13:29","","","","","","","","","","","","assessment 6","","131","components/portraits/StimImgFernandoAlves.PNG","21","","","","","21","Fernando Alves","B",""
"","image-slider-response-modified","323","4390058","0.0-324.0","60603","DH-014","17:13:29","","","","","","","","","","","","assessment 7","","150","components/portraits/StimImgFranklinReinhardt.PNG","-96","","","","","-96","Franklin Reinhardt","B",""
"","html-keyboard-response","324","4391066","0.0-325.0","60603","DH-014","17:13:30","","","","","","","","","","","","","","null","[""<p style=\""font-size: 36px; width: 1200px; line-height: 40px;\"">Returning to the video...""]","null","","","","","","","",""
"","browser-check","325","4392060","0.0-326.0","60603","DH-014","17:13:31","1280","800","true","chrome","128.0.0","false","Mac OS","true","60.48","true","true","Browser_Check","","","","","","","","","","","",""
"","video-keyboard-response","326","4475330","0.0-327.0","60603","DH-014","17:14:55","","","","","","","","","","","","video27","","null","[""components/stim/StimVid_Undoing2.mp4""]","null","","","","","","","",""
"","image-slider-response-modified","327","4493640","0.0-328.0","60603","DH-014","17:15:13","","","","","","","","","","","","assessment 0","","18307","components/portraits/StimImgJonathanFraser.PNG","49","","","","","49","Jonathan Fraser","B",""
"","image-slider-response-modified","328","4494073","0.0-329.0","60603","DH-014","17:15:13","","","","","","","","","","","","assessment 1","","429","components/portraits/StimImgMiguelAlves.PNG","-100","","","","","-100","Miguel Alves","B",""
"","image-slider-response-modified","329","4494323","0.0-330.0","60603","DH-014","17:15:14","","","","","","","","","","","","assessment 2","","246","components/portraits/StimImgElenaAlves.PNG","-12","","","","","-12","Elena Alves","B",""
"","image-slider-response-modified","330","4494576","0.0-331.0","60603","DH-014","17:15:14","","","","","","","","","","","","assessment 3","","249","components/portraits/StimImgHenryFraser.PNG","-53","","","","","-53","Henry Fraser","B",""
"","image-slider-response-modified","331","4494826","0.0-332.0","60603","DH-014","17:15:14","","","","","","","","","","","","assessment 4","","247","components/portraits/StimImgGraceFraser.PNG","-5","","","","","-5","Grace Fraser","B",""
"","image-slider-response-modified","332","4495024","0.0-333.0","60603","DH-014","17:15:14","","","","","","","","","","","","assessment 5","","195","components/portraits/StimImgSylviaSteinetz.PNG","0","","","","","0","Sylvia Steinetz","B",""
"","image-slider-response-modified","333","4495240","0.0-334.0","60603","DH-014","17:15:15","","","","","","","","","","","","assessment 6","","212","components/portraits/StimImgFernandoAlves.PNG","21","","","","","21","Fernando Alves","B",""
"","image-slider-response-modified","334","4495456","0.0-335.0","60603","DH-014","17:15:15","","","","","","","","","","","","assessment 7","","212","components/portraits/StimImgFranklinReinhardt.PNG","-96","","","","","-96","Franklin Reinhardt","B",""
"","html-keyboard-response","335","4496464","0.0-336.0","60603","DH-014","17:15:16","","","","","","","","","","","","","","null","[""<p style=\""font-size: 36px; width: 1200px; line-height: 40px;\"">Returning to the video...""]","null","","","","","","","",""
"","browser-check","336","4497460","0.0-337.0","60603","DH-014","17:15:17","1280","800","true","chrome","128.0.0","false","Mac OS","true","60.38","true","true","Browser_Check","","","","","","","","","","","",""
"","video-keyboard-response","337","4574872","0.0-338.0","60603","DH-014","17:16:34","","","","","","","","","","","","video28","","null","[""components/stim/StimVid_Undoing2.mp4""]","null","","","","","","","",""
"","image-slider-response-modified","338","4582673","0.0-339.0","60603","DH-014","17:16:42","","","","","","","","","","","","assessment 0","","7797","components/portraits/StimImgJonathanFraser.PNG","49","","","","","49","Jonathan Fraser","B",""
"","image-slider-response-modified","339","4583089","0.0-340.0","60603","DH-014","17:16:42","","","","","","","","","","","","assessment 1","","412","components/portraits/StimImgMiguelAlves.PNG","-100","","","","","-100","Miguel Alves","B",""
"","image-slider-response-modified","340","4583890","0.0-341.0","60603","DH-014","17:16:43","","","","","","","","","","","","assessment 2","","798","components/portraits/StimImgElenaAlves.PNG","-12","","","","","-12","Elena Alves","B",""
"","image-slider-response-modified","341","4584189","0.0-342.0","60603","DH-014","17:16:44","","","","","","","","","","","","assessment 3","","295","components/portraits/StimImgHenryFraser.PNG","-53","","","","","-53","Henry Fraser","B",""
"","image-slider-response-modified","342","4584374","0.0-343.0","60603","DH-014","17:16:44","","","","","","","","","","","","assessment 4","","181","components/portraits/StimImgGraceFraser.PNG","-5","","","","","-5","Grace Fraser","B",""
"","image-slider-response-modified","343","4584706","0.0-344.0","60603","DH-014","17:16:44","","","","","","","","","","","","assessment 5","","328","components/portraits/StimImgSylviaSteinetz.PNG","0","","","","","0","Sylvia Steinetz","B",""
"","image-slider-response-modified","344","4584926","0.0-345.0","60603","DH-014","17:16:44","","","","","","","","","","","","assessment 6","","217","components/portraits/StimImgFernandoAlves.PNG","21","","","","","21","Fernando Alves","B",""
"","image-slider-response-modified","345","4585122","0.0-346.0","60603","DH-014","17:16:45","","","","","","","","","","","","assessment 7","","193","components/portraits/StimImgFranklinReinhardt.PNG","-96","","","","","-96","Franklin Reinhardt","B",""
"","html-keyboard-response","346","4586129","0.0-347.0","60603","DH-014","17:16:46","","","","","","","","","","","","","","null","[""<p style=\""font-size: 36px; width: 1200px; line-height: 40px;\"">Returning to the video...""]","null","","","","","","","",""
"","browser-check","347","4587126","0.0-348.0","60603","DH-014","17:16:47","1280","800","true","chrome","128.0.0","false","Mac OS","true","60.32","true","true","Browser_Check","","","","","","","","","","","",""
"","video-keyboard-response","348","4674371","0.0-349.0","60603","DH-014","17:18:14","","","","","","","","","","","","video29","","null","[""components/stim/StimVid_Undoing2.mp4""]","null","","","","","","","",""
"","image-slider-response-modified","349","4677972","0.0-350.0","60603","DH-014","17:18:17","","","","","","","","","","","","assessment 0","","3598","components/portraits/StimImgJonathanFraser.PNG","49","","","","","49","Jonathan Fraser","B",""
"","image-slider-response-modified","350","4678223","0.0-351.0","60603","DH-014","17:18:18","","","","","","","","","","","","assessment 1","","246","components/portraits/StimImgMiguelAlves.PNG","-100","","","","","-100","Miguel Alves","B",""
"","image-slider-response-modified","351","4678439","0.0-352.0","60603","DH-014","17:18:18","","","","","","","","","","","","assessment 2","","213","components/portraits/StimImgElenaAlves.PNG","-12","","","","","-12","Elena Alves","B",""
"","image-slider-response-modified","352","4678658","0.0-353.0","60603","DH-014","17:18:18","","","","","","","","","","","","assessment 3","","215","components/portraits/StimImgHenryFraser.PNG","-53","","","","","-53","Henry Fraser","B",""
"","image-slider-response-modified","353","4678839","0.0-354.0","60603","DH-014","17:18:18","","","","","","","","","","","","assessment 4","","179","components/portraits/StimImgGraceFraser.PNG","-5","","","","","-5","Grace Fraser","B",""
"","image-slider-response-modified","354","4679073","0.0-355.0","60603","DH-014","17:18:18","","","","","","","","","","","","assessment 5","","231","components/portraits/StimImgSylviaSteinetz.PNG","0","","","","","0","Sylvia Steinetz","B",""
"","image-slider-response-modified","355","4679307","0.0-356.0","60603","DH-014","17:18:19","","","","","","","","","","","","assessment 6","","231","components/portraits/StimImgFernandoAlves.PNG","21","","","","","21","Fernando Alves","B",""
"","image-slider-response-modified","356","4679522","0.0-357.0","60603","DH-014","17:18:19","","","","","","","","","","","","assessment 7","","211","components/portraits/StimImgFranklinReinhardt.PNG","-96","","","","","-96","Franklin Reinhardt","B",""
"","html-keyboard-response","357","4680529","0.0-358.0","60603","DH-014","17:18:20","","","","","","","","","","","","","","null","[""<p style=\""font-size: 36px; width: 1200px; line-height: 40px;\"">Returning to the video...""]","null","","","","","","","",""
"","browser-check","358","4681526","0.0-359.0","60603","DH-014","17:18:21","1280","800","true","chrome","128.0.0","false","Mac OS","true","60.32","true","true","Browser_Check","","","","","","","","","","","",""
"","video-keyboard-response","359","4750994","0.0-360.0","60603","DH-014","17:19:30","","","","","","","","","","","","video30","","null","[""components/stim/StimVid_Undoing2.mp4""]","null","","","","","","","",""
"","image-slider-response-modified","360","4753639","0.0-361.0","60603","DH-014","17:19:33","","","","","","","","","","","","assessment 0","","2641","components/portraits/StimImgJonathanFraser.PNG","49","","","","","49","Jonathan Fraser","B",""
"","image-slider-response-modified","361","4754005","0.0-362.0","60603","DH-014","17:19:33","","","","","","","","","","","","assessment 1","","362","components/portraits/StimImgMiguelAlves.PNG","-100","","","","","-100","Miguel Alves","B",""
"","image-slider-response-modified","362","4754372","0.0-363.0","60603","DH-014","17:19:34","","","","","","","","","","","","assessment 2","","363","components/portraits/StimImgElenaAlves.PNG","-12","","","","","-12","Elena Alves","B",""
"","image-slider-response-modified","363","4754672","0.0-364.0","60603","DH-014","17:19:34","","","","","","","","","","","","assessment 3","","297","components/portraits/StimImgHenryFraser.PNG","-53","","","","","-53","Henry Fraser","B",""
"","image-slider-response-modified","364","4754940","0.0-365.0","60603","DH-014","17:19:34","","","","","","","","","","","","assessment 4","","264","components/portraits/StimImgGraceFraser.PNG","-5","","","","","-5","Grace Fraser","B",""
"","image-slider-response-modified","365","4755174","0.0-366.0","60603","DH-014","17:19:35","","","","","","","","","","","","assessment 5","","230","components/portraits/StimImgSylviaSteinetz.PNG","0","","","","","0","Sylvia Steinetz","B",""
"","image-slider-response-modified","366","4755540","0.0-367.0","60603","DH-014","17:19:35","","","","","","","","","","","","assessment 6","","363","components/portraits/StimImgFernandoAlves.PNG","21","","","","","21","Fernando Alves","B",""
"","image-slider-response-modified","367","4756255","0.0-368.0","60603","DH-014","17:19:36","","","","","","","","","","","","assessment 7","","712","components/portraits/StimImgFranklinReinhardt.PNG","-96","","","","","-96","Franklin Reinhardt","B",""
"","html-keyboard-response","368","4757262","0.0-369.0","60603","DH-014","17:19:37","","","","","","","","","","","","","","null","[""<p style=\""font-size: 36px; width: 1200px; line-height: 40px;\"">Returning to the video...""]","null","","","","","","","",""
"","browser-check","369","4758258","0.0-370.0","60603","DH-014","17:19:38","1280","800","true","chrome","128.0.0","false","Mac OS","true","60.36","true","true","Browser_Check","","","","","","","","","","","",""
"","video-keyboard-response","370","4839625","0.0-371.0","60603","DH-014","17:20:59","","","","","","","","","","","","video31","","null","[""components/stim/StimVid_Undoing2.mp4""]","null","","","","","","","",""
"","image-slider-response-modified","371","4841355","0.0-372.0","60603","DH-014","17:21:1","","","","","","","","","","","","assessment 0","","1726","components/portraits/StimImgJonathanFraser.PNG","49","","","","","49","Jonathan Fraser","B",""
"","image-slider-response-modified","372","4841640","0.0-373.0","60603","DH-014","17:21:1","","","","","","","","","","","","assessment 1","","280","components/portraits/StimImgMiguelAlves.PNG","-100","","","","","-100","Miguel Alves","B",""
"","image-slider-response-modified","373","4842106","0.0-374.0","60603","DH-014","17:21:2","","","","","","","","","","","","assessment 2","","460","components/portraits/StimImgElenaAlves.PNG","-12","","","","","-12","Elena Alves","B",""
"","image-slider-response-modified","374","4842337","0.0-375.0","60603","DH-014","17:21:2","","","","","","","","","","","","assessment 3","","227","components/portraits/StimImgHenryFraser.PNG","-53","","","","","-53","Henry Fraser","B",""
"","image-slider-response-modified","375","4842588","0.0-376.0","60603","DH-014","17:21:2","","","","","","","","","","","","assessment 4","","249","components/portraits/StimImgGraceFraser.PNG","-5","","","","","-5","Grace Fraser","B",""
"","image-slider-response-modified","376","4842838","0.0-377.0","60603","DH-014","17:21:2","","","","","","","","","","","","assessment 5","","247","components/portraits/StimImgSylviaSteinetz.PNG","0","","","","","0","Sylvia Steinetz","B",""
"","image-slider-response-modified","377","4843405","0.0-378.0","60603","DH-014","17:21:3","","","","","","","","","","","","assessment 6","","563","components/portraits/StimImgFernandoAlves.PNG","21","","","","","21","Fernando Alves","B",""
"","image-slider-response-modified","378","4843839","0.0-379.0","60603","DH-014","17:21:3","","","","","","","","","","","","assessment 7","","430","components/portraits/StimImgFranklinReinhardt.PNG","-96","","","","","-96","Franklin Reinhardt","B",""
"","html-keyboard-response","379","4844846","0.0-380.0","60603","DH-014","17:21:4","","","","","","","","","","","","","","null","[""<p style=\""font-size: 36px; width: 1200px; line-height: 40px;\"">Returning to the video...""]","null","","","","","","","",""
"","browser-check","380","4845841","0.0-381.0","60603","DH-014","17:21:5","1280","800","true","chrome","128.0.0","false","Mac OS","true","60.43","true","true","Browser_Check","","","","","","","","","","","",""
"","video-keyboard-response","381","4947156","0.0-382.0","60603","DH-014","17:22:47","","","","","","","","","","","","video32","","null","[""components/stim/StimVid_Undoing2.mp4""]","null","","","","","","","",""
"","image-slider-response-modified","382","4954739","0.0-383.0","60603","DH-014","17:22:54","","","","","","","","","","","","assessment 0","","7579","components/portraits/StimImgJonathanFraser.PNG","49","","","","","49","Jonathan Fraser","B",""
"","image-slider-response-modified","383","4955022","0.0-384.0","60603","DH-014","17:22:54","","","","","","","","","","","","assessment 1","","279","components/portraits/StimImgMiguelAlves.PNG","-100","","","","","-100","Miguel Alves","B",""
"","image-slider-response-modified","384","4955238","0.0-385.0","60603","DH-014","17:22:55","","","","","","","","","","","","assessment 2","","211","components/portraits/StimImgElenaAlves.PNG","-12","","","","","-12","Elena Alves","B",""
"","image-slider-response-modified","385","4955472","0.0-386.0","60603","DH-014","17:22:55","","","","","","","","","","","","assessment 3","","230","components/portraits/StimImgHenryFraser.PNG","-53","","","","","-53","Henry Fraser","B",""
"","image-slider-response-modified","386","4955671","0.0-387.0","60603","DH-014","17:22:55","","","","","","","","","","","","assessment 4","","196","components/portraits/StimImgGraceFraser.PNG","-5","","","","","-5","Grace Fraser","B",""
"","image-slider-response-modified","387","4955888","0.0-388.0","60603","DH-014","17:22:55","","","","","","","","","","","","assessment 5","","213","components/portraits/StimImgSylviaSteinetz.PNG","0","","","","","0","Sylvia Steinetz","B",""
"","image-slider-response-modified","388","4956139","0.0-389.0","60603","DH-014","17:22:56","","","","","","","","","","","","assessment 6","","247","components/portraits/StimImgFernandoAlves.PNG","21","","","","","21","Fernando Alves","B",""
"","image-slider-response-modified","389","4956354","0.0-390.0","60603","DH-014","17:22:56","","","","","","","","","","","","assessment 7","","211","components/portraits/StimImgFranklinReinhardt.PNG","-96","","","","","-96","Franklin Reinhardt","B",""
"","html-keyboard-response","390","4957358","0.0-391.0","60603","DH-014","17:22:57","","","","","","","","","","","","","","null","[""<p style=\""font-size: 36px; width: 1200px; line-height: 40px;\"">Returning to the video...""]","null","","","","","","","",""
"","browser-check","391","4958358","0.0-392.0","60603","DH-014","17:22:58","1280","800","true","chrome","128.0.0","false","Mac OS","true","60.17","true","true","Browser_Check","","","","","","","","","","","",""
"","video-keyboard-response","392","5045574","0.0-393.0","60603","DH-014","17:24:25","","","","","","","","","","","","video33","","null","[""components/stim/StimVid_Undoing2.mp4""]","null","","","","","","","",""
"","image-slider-response-modified","393","5047904","0.0-394.0","60603","DH-014","17:24:27","","","","","","","","","","","","assessment 0","","2326","components/portraits/StimImgJonathanFraser.PNG","49","","","","","49","Jonathan Fraser","B",""
"","image-slider-response-modified","394","5048337","0.0-395.0","60603","DH-014","17:24:28","","","","","","","","","","","","assessment 1","","429","components/portraits/StimImgMiguelAlves.PNG","-100","","","","","-100","Miguel Alves","B",""
"","image-slider-response-modified","395","5048569","0.0-396.0","60603","DH-014","17:24:28","","","","","","","","","","","","assessment 2","","229","components/portraits/StimImgElenaAlves.PNG","-12","","","","","-12","Elena Alves","B",""
"","image-slider-response-modified","396","5048770","0.0-397.0","60603","DH-014","17:24:28","","","","","","","","","","","","assessment 3","","199","components/portraits/StimImgHenryFraser.PNG","-53","","","","","-53","Henry Fraser","B",""
"","image-slider-response-modified","397","5048987","0.0-398.0","60603","DH-014","17:24:28","","","","","","","","","","","","assessment 4","","215","components/portraits/StimImgGraceFraser.PNG","-5","","","","","-5","Grace Fraser","B",""
"","image-slider-response-modified","398","5049355","0.0-399.0","60603","DH-014","17:24:29","","","","","","","","","","","","assessment 5","","366","components/portraits/StimImgSylviaSteinetz.PNG","0","","","","","0","Sylvia Steinetz","B",""
"","image-slider-response-modified","399","5049570","0.0-400.0","60603","DH-014","17:24:29","","","","","","","","","","","","assessment 6","","212","components/portraits/StimImgFernandoAlves.PNG","21","","","","","21","Fernando Alves","B",""
"","image-slider-response-modified","400","5049837","0.0-401.0","60603","DH-014","17:24:29","","","","","","","","","","","","assessment 7","","266","components/portraits/StimImgFranklinReinhardt.PNG","-96","","","","","-96","Franklin Reinhardt","B",""
"","html-keyboard-response","401","5050844","0.0-402.0","60603","DH-014","17:24:30","","","","","","","","","","","","","","null","[""<p style=\""font-size: 36px; width: 1200px; line-height: 40px;\"">Returning to the video...""]","null","","","","","","","",""
"","video-keyboard-response","402","5050945","0.0-403.0","60603","DH-014","","","","","","","","","","","","","video 33","","null","[""components/stim/StimVid_Undoing2.mp4""]","null","","","","","","","",""
