"trial_id","trial_type","trial_index","time_elapsed","internal_node_id","subject_id","break_id","time","width","height","webaudio","browser","browser_version","mobile","os","fullscreen","vsync_rate","webcam","microphone","task","success","rt","stimulus","response","timeout","failed_images","failed_audio","failed_video","slider_start","character","label_condition","question_order"
"pavlovia_init","pavlovia","0","706","0.0-0.0","58140","DH-002","11:54:9","","","","","","","","","","","","","","","","","","","","","","","",""
"","browser-check","1","1713","0.0-1.0","58140","DH-002","11:54:10","1440","815","true","firefox","131.0.0","false","Mac OS","true","59.94","true","true","Browser_Check","","","","","","","","","","","",""
"","fullscreen","2","4140","0.0-2.0","58140","DH-002","11:54:13","","","","","","","","","","","","Fullscreen","true","1420","","","","","","","","","",""
"","html-keyboard-response","3","21476","0.0-3.0","58140","DH-002","11:54:30","","","","","","","","","","","","Instruction","","17335","[""<p style=\""font-size: 36px; width: 1200px; line-height: 40px;\"">During this experiment, you will watch an episode of a publicly broadcasted murder mystery television show.<br><br>It contains adult themes and graphic language. While the video will portray a character accused of a violent crime, as well as verbal descriptions of the crime, <strong>violence will not be shown</strong>, nor will any other graphic visual content.<br><br><br>If you are not comfortable with continuing, please exit this experiment now.<br><br><br><br>Otherwise, please press the <strong>SPACE BAR</strong> to continue.</p>""]"," ","","","","","","","",""
"","preload","4","22379","0.0-4.0","58140","DH-002","11:54:31","","","","","","","","","","","","Preload","true","","","","false","[]","[]","[]","","","",""
"","image-button-response-modified","5","43550","0.0-5.0","58140","DH-002","11:54:52","","","","","","","","","","","","Consent","","21170","components/consent/SONA.png","0","","","","","","","",""
"","html-keyboard-response","6","44824","0.0-6.0","58140","DH-002","11:54:53","","","","","","","","","","","","Instr_Task","","1270","<p style=""font-size: 36px; width: 1200px; line-height: 40px;"">Thank you for agreeing to participate in this experiment! <br><br><br><br> Please press the <strong>SPACE BAR</strong> to continue</p>"," ","","","","","","","",""
"","html-keyboard-response","7","51504","0.0-7.0","58140","DH-002","11:55:0","","","","","","","","","","","","Instr_Task","","6679","<p style=""font-size: 36px; width: 1200px; line-height: 40px;"">Before we begin, please be sure that you are in a good space to complete the experiment. This space should be: <br><br><br><br> <strong>Comfortable <br><br> Distraction-free <br><br> Available for the next 60 minutes</strong> <br><br><br><br><br> Please press the <strong>SPACE BAR</strong> to continue</p>"," ","","","","","","","",""
"","html-keyboard-response","8","54069","0.0-8.0","58140","DH-002","11:55:3","","","","","","","","","","","","Instr_Task","","2563","<p style=""font-size: 36px; width: 1200px; line-height: 40px;""><strong>Please give your full attention to the experiment. This includes:</strong> <br><br><br><br> Closing or minimizing other programs on your computer <br><br> Silencing your phone or placing it somewhere it will not be distracting <br><br> Testing that your audio is working and set to a comfortable volume that you can clearly hear <br><br> Not completing this experiment with others present <br><br><br><br><br> Please press the <strong>SPACE BAR</strong> to continue</p>"," ","","","","","","","",""
"","html-keyboard-response","9","61102","0.0-9.0","58140","DH-002","11:55:10","","","","","","","","","","","","Instr_Task","","7031","<p style=""font-size: 36px; width: 1200px; line-height: 40px;"">You will watch 45 minutes of a crime mystery drama in which one character is suspected of having murdered another.<br><br><br>We will present background information about the characters of the show and the surrounding context before the episode begins.<br><br><br><br> Please press the <strong>SPACE BAR</strong> to continue</p>"," ","","","","","","","",""
"","html-keyboard-response","10","68702","0.0-10.0","58140","DH-002","11:55:17","","","","","","","","","","","","Instr_Task","","7600","<p style=""font-size: 36px; width: 1200px; line-height: 40px;"">The video will intermittently pause while you watch to assess how certain <strong>you</strong> are that different characters in the show are guilty or innocent of having committed the murder.<br><br><br><br> Please press the <strong>SPACE BAR</strong> to continue</p>"," ","","","","","","","",""
"","html-keyboard-response","11","73385","0.0-11.0","58140","DH-002","11:55:22","","","","","","","","","","","","Instr_Task","","4683","<p style=""font-size: 36px; width: 1200px; line-height: 40px;"">These certainty assessments tend to be flexible and may shift upon hearing something that a character says or seeing something that a character does or events that occur when a character is not on screen.<br><br><br>Some of this information may influence your assessments only slightly while other information may influence your assessments a great deal.<br><br><br>When prompted, please update your rating of how certain you are of each character's innocence or guilt at that moment in time. <br><br><br> Please try to be as precise as you can.<br><br><br><br> Please press the <strong>SPACE BAR</strong> to continue</p>"," ","","","","","","","",""
"","html-keyboard-response","12","79000","0.0-12.0","58140","DH-002","11:55:28","","","","","","","","","","","","Instr_Task","","5614","<p style=""font-size: 36px; width: 1200px; line-height: 40px;"">These certainty assessments will be assessed on a continuous scale. <br><br><br> The scale ranges from 100% certain that a character is guilty to 100% certain that a character is innocent.<br><br><br>Leaving the scale in the middle (i.e., 0% certain) would indicate that you are completely uncertain whether a character is innocent or guilt.<br><br><br><br> Please press the <strong>SPACE BAR</strong> to continue</p>"," ","","","","","","","",""
"","html-keyboard-response","13","82323","0.0-13.0","58140","DH-002","11:55:31","","","","","","","","","","","","Instr_Task","","3321","<p style=""font-size: 36px; width: 1200px; line-height: 40px;"">After your first rating, we will mark the scale where you had last rated that character to hopefully make updating your certainty rating easier. <br><br><br>A progress bar at the top will show the order in which you will assess the characters.<br><br><br>A portrait in the center of the screen will identify which character you are assessing at that moment.<br><br><br>Let's look at an example of what this looks like.<br><br><br><br> Please press the <strong>SPACE BAR</strong> to continue</p>"," ","","","","","","","",""
"","preload","14","83332","0.0-14.0","58140","DH-002","11:55:32","","","","","","","","","","","","Preload","true","","","","false","[]","[]","[]","","","",""
"","image-slider-response-modified","15","93087","0.0-15.0","58140","DH-002","11:55:42","","","","","","","","","","","","Practice","","9745","components/portraits/StimImgFernandoAlves.PNG","0","","","","","0","Fernando Alves","A",""
"","image-slider-response-modified","16","109543","0.0-16.0-0.0-0.0","58140","DH-002","11:55:58","","","","","","","","","","","","PracticeFailure","","16451","components/portraits/StimImgFernandoAlves.PNG","50","","","","","0","Fernando Alves","A",""
"","html-keyboard-response","17","110967","0.0-17.0","58140","DH-002","11:56:0","","","","","","","","","","","","PracticeSuccess","","1421","[""<p style=\""font-size: 36px; width: 1200px; line-height: 40px;\"">Great! If you have any questions that you must have answered before continuing, please contact study staff via the recruitment platform.<br><br><br>If you are ready to start, we will present the background information.<br><br><br><br> Please press the <strong>SPACE BAR</strong> to continue</p>""]"," ","","","","","","","",""
"","image-keyboard-response-modified","18","122636","0.0-18.0","58140","DH-002","11:56:11","","","","","","","","","","","","Background","","11668","[""components/portraits/StimImgJonathanFraser.PNG"",""components/portraits/StimImgElenaAlves.PNG""]"," ","","","","","","","",""
"","image-keyboard-response-modified","19","132444","0.0-19.0","58140","DH-002","11:56:21","","","","","","","","","","","","Background","","9805","[""components/portraits/StimImgJonathanFraser.PNG"",""components/portraits/StimImgElenaAlves.PNG""]"," ","","","","","","","",""
"","image-keyboard-response-modified","20","136194","0.0-20.0","58140","DH-002","11:56:25","","","","","","","","","","","","Background","","3748","[""components/portraits/StimImgHenryFraser.PNG"",""components/portraits/StimImgMiguelAlves.PNG""]"," ","","","","","","","",""
"","image-keyboard-response-modified","21","140659","0.0-21.0","58140","DH-002","11:56:29","","","","","","","","","","","","Background","","4463","[""components/portraits/StimImgGraceFraser.PNG"",""components/portraits/StimImgFernandoAlves.PNG""]"," ","","","","","","","",""
"","image-keyboard-response-modified","22","149890","0.0-22.0","58140","DH-002","11:56:38","","","","","","","","","","","","Background","","9229","[""components/portraits/StimImgFranklinReinhardt.PNG"",""components/portraits/StimImgSylviaSteinetz.PNG""]"," ","","","","","","","",""
"","image-keyboard-response-modified","23","157478","0.0-23.0","58140","DH-002","11:56:46","","","","","","","","","","","","Background","","7587","[""components/portraits/StimImgHaleyFitzgerald.PNG"",""components/portraits/StimImgRobertAdelman.PNG""]"," ","","","","","","","",""
"","image-keyboard-response-modified","24","164949","0.0-24.0","58140","DH-002","11:56:54","","","","","","","","","","","","Background","","7469","[""components/portraits/StimImgJoeMendoza.PNG""]"," ","","","","","","","",""
"","html-keyboard-response","25","166110","0.0-25.0","58140","DH-002","11:56:55","","","","","","","","","","","","Instr_ExpStart","","1159","[""<p style=\""font-size: 36px; width: 1200px; line-height: 40px;\"">The experiment will now start! <br><br><br><br> Please press the <strong>SPACE BAR</strong> to continue</p>""]"," ","","","","","","","",""
"","preload","26","184112","0.0-26.0","58140","DH-002","11:57:13","","","","","","","","","","","","Preload","true","","","","false","[]","[]","[]","","","",""
"","browser-check","27","185101","0.0-27.0","58140","DH-002","11:57:14","1440","900","true","firefox","131.0.0","false","Mac OS","true","60.85","true","true","Browser_Check","","","","","","","","","","","",""
"","video-keyboard-response","28","267564","0.0-28.0","58140","DH-002","11:58:36","","","","","","","","","","","","video 0","","null","[""components/stim/StimVid_Undoing1.mp4""]","null","","","","","","","",""
"","image-slider-response-modified","29","274143","0.0-29.0","58140","DH-002","11:58:43","","","","","","","","","","","","assessment 0","","6567","components/portraits/StimImgFernandoAlves.PNG","0","","","","","0","Fernando Alves","A",""
"","image-slider-response-modified","30","275524","0.0-30.0","58140","DH-002","11:58:44","","","","","","","","","","","","assessment 1","","1366","components/portraits/StimImgJonathanFraser.PNG","0","","","","","0","Jonathan Fraser","A",""
"","image-slider-response-modified","31","280729","0.0-31.0","58140","DH-002","11:58:49","","","","","","","","","","","","assessment 2","","5188","components/portraits/StimImgGraceFraser.PNG","-20","","","","","0","Grace Fraser","A",""
"","image-slider-response-modified","32","282141","0.0-32.0","58140","DH-002","11:58:51","","","","","","","","","","","","assessment 3","","1398","components/portraits/StimImgFranklinReinhardt.PNG","0","","","","","0","Franklin Reinhardt","A",""
"","image-slider-response-modified","33","283025","0.0-33.0","58140","DH-002","11:58:52","","","","","","","","","","","","assessment 4","","869","components/portraits/StimImgSylviaSteinetz.PNG","0","","","","","0","Sylvia Steinetz","A",""
"","image-slider-response-modified","34","283839","0.0-34.0","58140","DH-002","11:58:52","","","","","","","","","","","","assessment 5","","800","components/portraits/StimImgElenaAlves.PNG","0","","","","","0","Elena Alves","A",""
"","image-slider-response-modified","35","284581","0.0-35.0","58140","DH-002","11:58:53","","","","","","","","","","","","assessment 6","","729","components/portraits/StimImgMiguelAlves.PNG","0","","","","","0","Miguel Alves","A",""
"","image-slider-response-modified","36","285257","0.0-36.0","58140","DH-002","11:58:54","","","","","","","","","","","","assessment 7","","660","components/portraits/StimImgHenryFraser.PNG","0","","","","","0","Henry Fraser","A",""
"","html-keyboard-response","37","286341","0.0-37.0","58140","DH-002","11:58:55","","","","","","","","","","","","","","null","[""<p style=\""font-size: 36px; width: 1200px; line-height: 40px;\"">Returning to the video...""]","null","","","","","","","",""
"","browser-check","38","287329","0.0-38.0","58140","DH-002","11:58:56","1440","900","true","firefox","131.0.0","false","Mac OS","true","60.91","true","true","Browser_Check","","","","","","","","","","","",""
"","video-keyboard-response","39","382748","0.0-39.0","58140","DH-002","12:0:31","","","","","","","","","","","","video 1","","null","[""components/stim/StimVid_Undoing1.mp4""]","null","","","","","","","",""
"","image-slider-response-modified","40","387133","0.0-40.0","58140","DH-002","12:0:36","","","","","","","","","","","","assessment 0","","4382","components/portraits/StimImgFernandoAlves.PNG","0","","","","","0","Fernando Alves","A",""
"","image-slider-response-modified","41","387786","0.0-41.0","58140","DH-002","12:0:36","","","","","","","","","","","","assessment 1","","649","components/portraits/StimImgJonathanFraser.PNG","0","","","","","0","Jonathan Fraser","A",""
"","image-slider-response-modified","42","388790","0.0-42.0","58140","DH-002","12:0:37","","","","","","","","","","","","assessment 2","","987","components/portraits/StimImgGraceFraser.PNG","-20","","","","","-20","Grace Fraser","A",""
"","image-slider-response-modified","43","389452","0.0-43.0","58140","DH-002","12:0:38","","","","","","","","","","","","assessment 3","","647","components/portraits/StimImgFranklinReinhardt.PNG","0","","","","","0","Franklin Reinhardt","A",""
"","image-slider-response-modified","44","389978","0.0-44.0","58140","DH-002","12:0:39","","","","","","","","","","","","assessment 4","","510","components/portraits/StimImgSylviaSteinetz.PNG","0","","","","","0","Sylvia Steinetz","A",""
"","image-slider-response-modified","45","390441","0.0-45.0","58140","DH-002","12:0:39","","","","","","","","","","","","assessment 5","","448","components/portraits/StimImgElenaAlves.PNG","0","","","","","0","Elena Alves","A",""
"","image-slider-response-modified","46","390992","0.0-46.0","58140","DH-002","12:0:40","","","","","","","","","","","","assessment 6","","538","components/portraits/StimImgMiguelAlves.PNG","0","","","","","0","Miguel Alves","A",""
"","image-slider-response-modified","47","391534","0.0-47.0","58140","DH-002","12:0:40","","","","","","","","","","","","assessment 7","","527","components/portraits/StimImgHenryFraser.PNG","0","","","","","0","Henry Fraser","A",""
"","html-keyboard-response","48","392539","0.0-48.0","58140","DH-002","12:0:41","","","","","","","","","","","","","","null","[""<p style=\""font-size: 36px; width: 1200px; line-height: 40px;\"">Returning to the video...""]","null","","","","","","","",""
"","browser-check","49","393524","0.0-49.0","58140","DH-002","12:0:42","1440","900","true","firefox","131.0.0","false","Mac OS","true","61.22","true","true","Browser_Check","","","","","","","","","","","",""
"","video-keyboard-response","50","478990","0.0-50.0","58140","DH-002","12:2:8","","","","","","","","","","","","video 2","","null","[""components/stim/StimVid_Undoing1.mp4""]","null","","","","","","","",""
"","image-slider-response-modified","51","480757","0.0-51.0","58140","DH-002","12:2:9","","","","","","","","","","","","assessment 0","","1754","components/portraits/StimImgFernandoAlves.PNG","0","","","","","0","Fernando Alves","A",""
"","image-slider-response-modified","52","481036","0.0-52.0","58140","DH-002","12:2:10","","","","","","","","","","","","assessment 1","","267","components/portraits/StimImgJonathanFraser.PNG","0","","","","","0","Jonathan Fraser","A",""
"","image-slider-response-modified","53","481746","0.0-53.0","58140","DH-002","12:2:10","","","","","","","","","","","","assessment 2","","704","components/portraits/StimImgGraceFraser.PNG","-20","","","","","-20","Grace Fraser","A",""
"","image-slider-response-modified","54","482736","0.0-54.0","58140","DH-002","12:2:11","","","","","","","","","","","","assessment 3","","988","components/portraits/StimImgFranklinReinhardt.PNG","0","","","","","0","Franklin Reinhardt","A",""
"","image-slider-response-modified","55","483102","0.0-55.0","58140","DH-002","12:2:12","","","","","","","","","","","","assessment 4","","361","components/portraits/StimImgSylviaSteinetz.PNG","0","","","","","0","Sylvia Steinetz","A",""
"","image-slider-response-modified","56","483357","0.0-56.0","58140","DH-002","12:2:12","","","","","","","","","","","","assessment 5","","250","components/portraits/StimImgElenaAlves.PNG","0","","","","","0","Elena Alves","A",""
"","image-slider-response-modified","57","483556","0.0-57.0","58140","DH-002","12:2:12","","","","","","","","","","","","assessment 6","","195","components/portraits/StimImgMiguelAlves.PNG","0","","","","","0","Miguel Alves","A",""
"","image-slider-response-modified","58","483795","0.0-58.0","58140","DH-002","12:2:12","","","","","","","","","","","","assessment 7","","234","components/portraits/StimImgHenryFraser.PNG","0","","","","","0","Henry Fraser","A",""
"","html-keyboard-response","59","484801","0.0-59.0","58140","DH-002","12:2:13","","","","","","","","","","","","","","null","[""<p style=\""font-size: 36px; width: 1200px; line-height: 40px;\"">Returning to the video...""]","null","","","","","","","",""
"","browser-check","60","485788","0.0-60.0","58140","DH-002","12:2:14","1440","900","true","firefox","131.0.0","false","Mac OS","true","60.91","true","true","Browser_Check","","","","","","","","","","","",""
"","video-keyboard-response","61","567093","0.0-61.0","58140","DH-002","12:3:36","","","","","","","","","","","","video 3","","null","[""components/stim/StimVid_Undoing1.mp4""]","null","","","","","","","",""
"","image-slider-response-modified","62","569581","0.0-62.0","58140","DH-002","12:3:38","","","","","","","","","","","","assessment 0","","2484","components/portraits/StimImgFernandoAlves.PNG","0","","","","","0","Fernando Alves","A",""
"","image-slider-response-modified","63","569780","0.0-63.0","58140","DH-002","12:3:38","","","","","","","","","","","","assessment 1","","184","components/portraits/StimImgJonathanFraser.PNG","0","","","","","0","Jonathan Fraser","A",""
"","image-slider-response-modified","64","569995","0.0-64.0","58140","DH-002","12:3:39","","","","","","","","","","","","assessment 2","","199","components/portraits/StimImgGraceFraser.PNG","-20","","","","","-20","Grace Fraser","A",""
"","image-slider-response-modified","65","570202","0.0-65.0","58140","DH-002","12:3:39","","","","","","","","","","","","assessment 3","","196","components/portraits/StimImgFranklinReinhardt.PNG","0","","","","","0","Franklin Reinhardt","A",""
"","image-slider-response-modified","66","570385","0.0-66.0","58140","DH-002","12:3:39","","","","","","","","","","","","assessment 4","","167","components/portraits/StimImgSylviaSteinetz.PNG","0","","","","","0","Sylvia Steinetz","A",""
"","image-slider-response-modified","67","570586","0.0-67.0","58140","DH-002","12:3:39","","","","","","","","","","","","assessment 5","","188","components/portraits/StimImgElenaAlves.PNG","0","","","","","0","Elena Alves","A",""
"","image-slider-response-modified","68","570786","0.0-68.0","58140","DH-002","12:3:39","","","","","","","","","","","","assessment 6","","186","components/portraits/StimImgMiguelAlves.PNG","0","","","","","0","Miguel Alves","A",""
"","image-slider-response-modified","69","570960","0.0-69.0","58140","DH-002","12:3:40","","","","","","","","","","","","assessment 7","","160","components/portraits/StimImgHenryFraser.PNG","0","","","","","0","Henry Fraser","A",""
"","html-keyboard-response","70","571968","0.0-70.0","58140","DH-002","12:3:41","","","","","","","","","","","","","","null","[""<p style=\""font-size: 36px; width: 1200px; line-height: 40px;\"">Returning to the video...""]","null","","","","","","","",""
"","browser-check","71","572955","0.0-71.0","58140","DH-002","12:3:42","1440","900","true","firefox","131.0.0","false","Mac OS","true","60.91","true","true","Browser_Check","","","","","","","","","","","",""
"","video-keyboard-response","72","642351","0.0-72.0","58140","DH-002","12:4:51","","","","","","","","","","","","video 4","","null","[""components/stim/StimVid_Undoing1.mp4""]","null","","","","","","","",""
"","image-slider-response-modified","73","643865","0.0-73.0","58140","DH-002","12:4:52","","","","","","","","","","","","assessment 0","","1502","components/portraits/StimImgFernandoAlves.PNG","0","","","","","0","Fernando Alves","A",""
"","image-slider-response-modified","74","644095","0.0-74.0","58140","DH-002","12:4:53","","","","","","","","","","","","assessment 1","","226","components/portraits/StimImgJonathanFraser.PNG","0","","","","","0","Jonathan Fraser","A",""
"","image-slider-response-modified","75","644294","0.0-75.0","58140","DH-002","12:4:53","","","","","","","","","","","","assessment 2","","194","components/portraits/StimImgGraceFraser.PNG","-20","","","","","-20","Grace Fraser","A",""
"","image-slider-response-modified","76","644558","0.0-76.0","58140","DH-002","12:4:53","","","","","","","","","","","","assessment 3","","260","components/portraits/StimImgFranklinReinhardt.PNG","0","","","","","0","Franklin Reinhardt","A",""
"","image-slider-response-modified","77","644748","0.0-77.0","58140","DH-002","12:4:53","","","","","","","","","","","","assessment 4","","187","components/portraits/StimImgSylviaSteinetz.PNG","0","","","","","0","Sylvia Steinetz","A",""
"","image-slider-response-modified","78","645251","0.0-78.0","58140","DH-002","12:4:54","","","","","","","","","","","","assessment 5","","499","components/portraits/StimImgElenaAlves.PNG","0","","","","","0","Elena Alves","A",""
"","image-slider-response-modified","79","645442","0.0-79.0","58140","DH-002","12:4:54","","","","","","","","","","","","assessment 6","","189","components/portraits/StimImgMiguelAlves.PNG","0","","","","","0","Miguel Alves","A",""
"","image-slider-response-modified","80","645634","0.0-80.0","58140","DH-002","12:4:54","","","","","","","","","","","","assessment 7","","188","components/portraits/StimImgHenryFraser.PNG","0","","","","","0","Henry Fraser","A",""
"","html-keyboard-response","81","646679","0.0-81.0","58140","DH-002","12:4:55","","","","","","","","","","","","","","null","[""<p style=\""font-size: 36px; width: 1200px; line-height: 40px;\"">Returning to the video...""]","null","","","","","","","",""
"","browser-check","82","647664","0.0-82.0","58140","DH-002","12:4:56","1440","900","true","firefox","131.0.0","false","Mac OS","true","60.98","true","true","Browser_Check","","","","","","","","","","","",""
"","video-keyboard-response","83","715070","0.0-83.0","58140","DH-002","12:6:4","","","","","","","","","","","","video 5","","null","[""components/stim/StimVid_Undoing1.mp4""]","null","","","","","","","",""
"","image-slider-response-modified","84","717004","0.0-84.0","58140","DH-002","12:6:6","","","","","","","","","","","","assessment 0","","1931","components/portraits/StimImgFernandoAlves.PNG","0","","","","","0","Fernando Alves","A",""
"","image-slider-response-modified","85","717318","0.0-85.0","58140","DH-002","12:6:6","","","","","","","","","","","","assessment 1","","309","components/portraits/StimImgJonathanFraser.PNG","0","","","","","0","Jonathan Fraser","A",""
"","image-slider-response-modified","86","717715","0.0-86.0","58140","DH-002","12:6:6","","","","","","","","","","","","assessment 2","","395","components/portraits/StimImgGraceFraser.PNG","-20","","","","","-20","Grace Fraser","A",""
"","image-slider-response-modified","87","718091","0.0-87.0","58140","DH-002","12:6:7","","","","","","","","","","","","assessment 3","","369","components/portraits/StimImgFranklinReinhardt.PNG","0","","","","","0","Franklin Reinhardt","A",""
"","image-slider-response-modified","88","718410","0.0-88.0","58140","DH-002","12:6:7","","","","","","","","","","","","assessment 4","","314","components/portraits/StimImgSylviaSteinetz.PNG","0","","","","","0","Sylvia Steinetz","A",""
"","image-slider-response-modified","89","718767","0.0-89.0","58140","DH-002","12:6:7","","","","","","","","","","","","assessment 5","","354","components/portraits/StimImgElenaAlves.PNG","0","","","","","0","Elena Alves","A",""
"","image-slider-response-modified","90","718975","0.0-90.0","58140","DH-002","12:6:8","","","","","","","","","","","","assessment 6","","203","components/portraits/StimImgMiguelAlves.PNG","0","","","","","0","Miguel Alves","A",""
"","image-slider-response-modified","91","719206","0.0-91.0","58140","DH-002","12:6:8","","","","","","","","","","","","assessment 7","","227","components/portraits/StimImgHenryFraser.PNG","0","","","","","0","Henry Fraser","A",""
"","html-keyboard-response","92","720214","0.0-92.0","58140","DH-002","12:6:9","","","","","","","","","","","","","","null","[""<p style=\""font-size: 36px; width: 1200px; line-height: 40px;\"">Returning to the video...""]","null","","","","","","","",""
"","browser-check","93","721199","0.0-93.0","58140","DH-002","12:6:10","1440","900","true","firefox","131.0.0","false","Mac OS","true","60.98","true","true","Browser_Check","","","","","","","","","","","",""
"","video-keyboard-response","94","798459","0.0-94.0","58140","DH-002","12:7:27","","","","","","","","","","","","video 6","","null","[""components/stim/StimVid_Undoing1.mp4""]","null","","","","","","","",""
"","image-slider-response-modified","95","802802","0.0-95.0","58140","DH-002","12:7:31","","","","","","","","","","","","assessment 0","","4341","components/portraits/StimImgFernandoAlves.PNG","0","","","","","0","Fernando Alves","A",""
"","image-slider-response-modified","96","803106","0.0-96.0","58140","DH-002","12:7:32","","","","","","","","","","","","assessment 1","","300","components/portraits/StimImgJonathanFraser.PNG","0","","","","","0","Jonathan Fraser","A",""
"","image-slider-response-modified","97","803361","0.0-97.0","58140","DH-002","12:7:32","","","","","","","","","","","","assessment 2","","249","components/portraits/StimImgGraceFraser.PNG","-20","","","","","-20","Grace Fraser","A",""
"","image-slider-response-modified","98","804183","0.0-98.0","58140","DH-002","12:7:33","","","","","","","","","","","","assessment 3","","818","components/portraits/StimImgFranklinReinhardt.PNG","0","","","","","0","Franklin Reinhardt","A",""
"","image-slider-response-modified","99","805148","0.0-99.0","58140","DH-002","12:7:34","","","","","","","","","","","","assessment 4","","959","components/portraits/StimImgSylviaSteinetz.PNG","0","","","","","0","Sylvia Steinetz","A",""
"","image-slider-response-modified","100","805354","0.0-100.0","58140","DH-002","12:7:34","","","","","","","","","","","","assessment 5","","202","components/portraits/StimImgElenaAlves.PNG","0","","","","","0","Elena Alves","A",""
"","image-slider-response-modified","101","805586","0.0-101.0","58140","DH-002","12:7:34","","","","","","","","","","","","assessment 6","","230","components/portraits/StimImgMiguelAlves.PNG","0","","","","","0","Miguel Alves","A",""
"","image-slider-response-modified","102","805921","0.0-102.0","58140","DH-002","12:7:35","","","","","","","","","","","","assessment 7","","330","components/portraits/StimImgHenryFraser.PNG","0","","","","","0","Henry Fraser","A",""
"","html-keyboard-response","103","806924","0.0-103.0","58140","DH-002","12:7:36","","","","","","","","","","","","","","null","[""<p style=\""font-size: 36px; width: 1200px; line-height: 40px;\"">Returning to the video...""]","null","","","","","","","",""
"","browser-check","104","807909","0.0-104.0","58140","DH-002","12:7:37","1440","900","true","firefox","131.0.0","false","Mac OS","true","60.98","true","true","Browser_Check","","","","","","","","","","","",""
"","video-keyboard-response","105","875311","0.0-105.0","58140","DH-002","12:8:44","","","","","","","","","","","","video 7","","null","[""components/stim/StimVid_Undoing1.mp4""]","null","","","","","","","",""
"","image-slider-response-modified","106","877380","0.0-106.0","58140","DH-002","12:8:46","","","","","","","","","","","","assessment 0","","2058","components/portraits/StimImgFernandoAlves.PNG","0","","","","","0","Fernando Alves","A",""
"","image-slider-response-modified","107","877612","0.0-107.0","58140","DH-002","12:8:46","","","","","","","","","","","","assessment 1","","218","components/portraits/StimImgJonathanFraser.PNG","0","","","","","0","Jonathan Fraser","A",""
"","image-slider-response-modified","108","877827","0.0-108.0","58140","DH-002","12:8:46","","","","","","","","","","","","assessment 2","","198","components/portraits/StimImgGraceFraser.PNG","-20","","","","","-20","Grace Fraser","A",""
"","image-slider-response-modified","109","877970","0.0-109.0","58140","DH-002","12:8:47","","","","","","","","","","","","assessment 3","","131","components/portraits/StimImgFranklinReinhardt.PNG","0","","","","","0","Franklin Reinhardt","A",""
"","image-slider-response-modified","110","878569","0.0-110.0","58140","DH-002","12:8:47","","","","","","","","","","","","assessment 4","","583","components/portraits/StimImgSylviaSteinetz.PNG","0","","","","","0","Sylvia Steinetz","A",""
"","image-slider-response-modified","111","878792","0.0-111.0","58140","DH-002","12:8:47","","","","","","","","","","","","assessment 5","","210","components/portraits/StimImgElenaAlves.PNG","0","","","","","0","Elena Alves","A",""
"","image-slider-response-modified","112","878944","0.0-112.0","58140","DH-002","12:8:48","","","","","","","","","","","","assessment 6","","138","components/portraits/StimImgMiguelAlves.PNG","0","","","","","0","Miguel Alves","A",""
"","image-slider-response-modified","113","879374","0.0-113.0","58140","DH-002","12:8:48","","","","","","","","","","","","assessment 7","","416","components/portraits/StimImgHenryFraser.PNG","0","","","","","0","Henry Fraser","A",""
"","html-keyboard-response","114","880378","0.0-114.0","58140","DH-002","12:8:49","","","","","","","","","","","","","","null","[""<p style=\""font-size: 36px; width: 1200px; line-height: 40px;\"">Returning to the video...""]","null","","","","","","","",""
"","browser-check","115","881364","0.0-115.0","58140","DH-002","12:8:50","1440","900","true","firefox","131.0.0","false","Mac OS","true","60.91","true","true","Browser_Check","","","","","","","","","","","",""
"","video-keyboard-response","116","996746","0.0-116.0","58140","DH-002","12:10:45","","","","","","","","","","","","video 8","","null","[""components/stim/StimVid_Undoing1.mp4""]","null","","","","","","","",""
"","image-slider-response-modified","117","997819","0.0-117.0","58140","DH-002","12:10:46","","","","","","","","","","","","assessment 0","","1064","components/portraits/StimImgFernandoAlves.PNG","0","","","","","0","Fernando Alves","A",""
"","image-slider-response-modified","118","998008","0.0-118.0","58140","DH-002","12:10:47","","","","","","","","","","","","assessment 1","","176","components/portraits/StimImgJonathanFraser.PNG","0","","","","","0","Jonathan Fraser","A",""
"","image-slider-response-modified","119","999126","0.0-119.0","58140","DH-002","12:10:48","","","","","","","","","","","","assessment 2","","1102","components/portraits/StimImgGraceFraser.PNG","-20","","","","","-20","Grace Fraser","A",""
"","image-slider-response-modified","120","1006859","0.0-120.0","58140","DH-002","12:10:55","","","","","","","","","","","","assessment 3","","7720","components/portraits/StimImgFranklinReinhardt.PNG","4","","","","","0","Franklin Reinhardt","A",""
"","image-slider-response-modified","121","1008717","0.0-121.0","58140","DH-002","12:10:57","","","","","","","","","","","","assessment 4","","1843","components/portraits/StimImgSylviaSteinetz.PNG","0","","","","","0","Sylvia Steinetz","A",""
"","image-slider-response-modified","122","1009275","0.0-122.0","58140","DH-002","12:10:58","","","","","","","","","","","","assessment 5","","545","components/portraits/StimImgElenaAlves.PNG","0","","","","","0","Elena Alves","A",""
"","image-slider-response-modified","123","1009744","0.0-123.0","58140","DH-002","12:10:58","","","","","","","","","","","","assessment 6","","457","components/portraits/StimImgMiguelAlves.PNG","0","","","","","0","Miguel Alves","A",""
"","image-slider-response-modified","124","1010256","0.0-124.0","58140","DH-002","12:10:59","","","","","","","","","","","","assessment 7","","502","components/portraits/StimImgHenryFraser.PNG","0","","","","","0","Henry Fraser","A",""
"","html-keyboard-response","125","1011298","0.0-125.0","58140","DH-002","12:11:0","","","","","","","","","","","","","","null","[""<p style=\""font-size: 36px; width: 1200px; line-height: 40px;\"">Returning to the video...""]","null","","","","","","","",""
"","browser-check","126","1012285","0.0-126.0","58140","DH-002","12:11:1","1440","900","true","firefox","131.0.0","false","Mac OS","true","60.98","true","true","Browser_Check","","","","","","","","","","","",""
"","video-keyboard-response","127","1079564","0.0-127.0","58140","DH-002","12:12:8","","","","","","","","","","","","video 9","","null","[""components/stim/StimVid_Undoing1.mp4""]","null","","","","","","","",""
"","image-slider-response-modified","128","1081382","0.0-128.0","58140","DH-002","12:12:10","","","","","","","","","","","","assessment 0","","1816","components/portraits/StimImgFernandoAlves.PNG","0","","","","","0","Fernando Alves","A",""
"","image-slider-response-modified","129","1081560","0.0-129.0","58140","DH-002","12:12:10","","","","","","","","","","","","assessment 1","","173","components/portraits/StimImgJonathanFraser.PNG","0","","","","","0","Jonathan Fraser","A",""
"","image-slider-response-modified","130","1081757","0.0-130.0","58140","DH-002","12:12:10","","","","","","","","","","","","assessment 2","","193","components/portraits/StimImgGraceFraser.PNG","-20","","","","","-20","Grace Fraser","A",""
"","image-slider-response-modified","131","1082101","0.0-131.0","58140","DH-002","12:12:11","","","","","","","","","","","","assessment 3","","339","components/portraits/StimImgFranklinReinhardt.PNG","4","","","","","4","Franklin Reinhardt","A",""
"","image-slider-response-modified","132","1082308","0.0-132.0","58140","DH-002","12:12:11","","","","","","","","","","","","assessment 4","","203","components/portraits/StimImgSylviaSteinetz.PNG","0","","","","","0","Sylvia Steinetz","A",""
"","image-slider-response-modified","133","1082490","0.0-133.0","58140","DH-002","12:12:11","","","","","","","","","","","","assessment 5","","178","components/portraits/StimImgElenaAlves.PNG","0","","","","","0","Elena Alves","A",""
"","image-slider-response-modified","134","1082849","0.0-134.0","58140","DH-002","12:12:11","","","","","","","","","","","","assessment 6","","356","components/portraits/StimImgMiguelAlves.PNG","0","","","","","0","Miguel Alves","A",""
"","image-slider-response-modified","135","1083168","0.0-135.0","58140","DH-002","12:12:12","","","","","","","","","","","","assessment 7","","315","components/portraits/StimImgHenryFraser.PNG","0","","","","","0","Henry Fraser","A",""
"","html-keyboard-response","136","1084176","0.0-136.0","58140","DH-002","12:12:13","","","","","","","","","","","","","","null","[""<p style=\""font-size: 36px; width: 1200px; line-height: 40px;\"">Returning to the video...""]","null","","","","","","","",""
"","browser-check","137","1085159","0.0-137.0","58140","DH-002","12:12:14","1440","900","true","firefox","131.0.0","false","Mac OS","true","61.1","true","true","Browser_Check","","","","","","","","","","","",""
"","video-keyboard-response","138","1162688","0.0-138.0","58140","DH-002","12:13:31","","","","","","","","","","","","video 10","","null","[""components/stim/StimVid_Undoing1.mp4""]","null","","","","","","","",""
"","image-slider-response-modified","139","1164217","0.0-139.0","58140","DH-002","12:13:33","","","","","","","","","","","","assessment 0","","1526","components/portraits/StimImgFernandoAlves.PNG","0","","","","","0","Fernando Alves","A",""
"","image-slider-response-modified","140","1164342","0.0-140.0","58140","DH-002","12:13:33","","","","","","","","","","","","assessment 1","","121","components/portraits/StimImgJonathanFraser.PNG","0","","","","","0","Jonathan Fraser","A",""
"","image-slider-response-modified","141","1164925","0.0-141.0","58140","DH-002","12:13:34","","","","","","","","","","","","assessment 2","","578","components/portraits/StimImgGraceFraser.PNG","-20","","","","","-20","Grace Fraser","A",""
"","image-slider-response-modified","142","1165109","0.0-142.0","58140","DH-002","12:13:34","","","","","","","","","","","","assessment 3","","178","components/portraits/StimImgFranklinReinhardt.PNG","4","","","","","4","Franklin Reinhardt","A",""
"","image-slider-response-modified","143","1165706","0.0-143.0","58140","DH-002","12:13:34","","","","","","","","","","","","assessment 4","","594","components/portraits/StimImgSylviaSteinetz.PNG","0","","","","","0","Sylvia Steinetz","A",""
"","image-slider-response-modified","144","1166782","0.0-144.0","58140","DH-002","12:13:35","","","","","","","","","","","","assessment 5","","1074","components/portraits/StimImgElenaAlves.PNG","0","","","","","0","Elena Alves","A",""
"","image-slider-response-modified","145","1167684","0.0-145.0","58140","DH-002","12:13:36","","","","","","","","","","","","assessment 6","","900","components/portraits/StimImgMiguelAlves.PNG","0","","","","","0","Miguel Alves","A",""
"","image-slider-response-modified","146","1168338","0.0-146.0","58140","DH-002","12:13:37","","","","","","","","","","","","assessment 7","","649","components/portraits/StimImgHenryFraser.PNG","0","","","","","0","Henry Fraser","A",""
"","html-keyboard-response","147","1169343","0.0-147.0","58140","DH-002","12:13:38","","","","","","","","","","","","","","null","[""<p style=\""font-size: 36px; width: 1200px; line-height: 40px;\"">Returning to the video...""]","null","","","","","","","",""
"","browser-check","148","1170332","0.0-148.0","58140","DH-002","12:13:39","1440","900","true","firefox","131.0.0","false","Mac OS","true","60.79","true","true","Browser_Check","","","","","","","","","","","",""
"","video-keyboard-response","149","1243786","0.0-149.0","58140","DH-002","12:14:52","","","","","","","","","","","","video 11","","null","[""components/stim/StimVid_Undoing1.mp4""]","null","","","","","","","",""
"","image-slider-response-modified","150","1247061","0.0-150.0","58140","DH-002","12:14:56","","","","","","","","","","","","assessment 0","","3261","components/portraits/StimImgFernandoAlves.PNG","0","","","","","0","Fernando Alves","A",""
"","image-slider-response-modified","151","1247356","0.0-151.0","58140","DH-002","12:14:56","","","","","","","","","","","","assessment 1","","282","components/portraits/StimImgJonathanFraser.PNG","0","","","","","0","Jonathan Fraser","A",""
"","image-slider-response-modified","152","1247636","0.0-152.0","58140","DH-002","12:14:56","","","","","","","","","","","","assessment 2","","264","components/portraits/StimImgGraceFraser.PNG","-20","","","","","-20","Grace Fraser","A",""
"","image-slider-response-modified","153","1247921","0.0-153.0","58140","DH-002","12:14:57","","","","","","","","","","","","assessment 3","","272","components/portraits/StimImgFranklinReinhardt.PNG","4","","","","","4","Franklin Reinhardt","A",""
"","image-slider-response-modified","154","1248361","0.0-154.0","58140","DH-002","12:14:57","","","","","","","","","","","","assessment 4","","426","components/portraits/StimImgSylviaSteinetz.PNG","0","","","","","0","Sylvia Steinetz","A",""
"","image-slider-response-modified","155","1248600","0.0-155.0","58140","DH-002","12:14:57","","","","","","","","","","","","assessment 5","","226","components/portraits/StimImgElenaAlves.PNG","0","","","","","0","Elena Alves","A",""
"","image-slider-response-modified","156","1248975","0.0-156.0","58140","DH-002","12:14:58","","","","","","","","","","","","assessment 6","","365","components/portraits/StimImgMiguelAlves.PNG","0","","","","","0","Miguel Alves","A",""
"","image-slider-response-modified","157","1250435","0.0-157.0","58140","DH-002","12:14:59","","","","","","","","","","","","assessment 7","","1446","components/portraits/StimImgHenryFraser.PNG","0","","","","","0","Henry Fraser","A",""
"","html-keyboard-response","158","1251442","0.0-158.0","58140","DH-002","12:15:0","","","","","","","","","","","","","","null","[""<p style=\""font-size: 36px; width: 1200px; line-height: 40px;\"">Returning to the video...""]","null","","","","","","","",""
"","browser-check","159","1252428","0.0-159.0","58140","DH-002","12:15:1","1440","900","true","firefox","131.0.0","false","Mac OS","true","60.98","true","true","Browser_Check","","","","","","","","","","","",""
"","video-keyboard-response","160","1347725","0.0-160.0","58140","DH-002","12:16:36","","","","","","","","","","","","video 12","","null","[""components/stim/StimVid_Undoing1.mp4""]","null","","","","","","","",""
"","image-slider-response-modified","161","1356612","0.0-161.0","58140","DH-002","12:16:45","","","","","","","","","","","","assessment 0","","8885","components/portraits/StimImgFernandoAlves.PNG","0","","","","","0","Fernando Alves","A",""
"","image-slider-response-modified","162","1370456","0.0-162.0","58140","DH-002","12:16:59","","","","","","","","","","","","assessment 1","","13839","components/portraits/StimImgJonathanFraser.PNG","-5","","","","","0","Jonathan Fraser","A",""
"","image-slider-response-modified","163","1372880","0.0-163.0","58140","DH-002","12:17:1","","","","","","","","","","","","assessment 2","","2407","components/portraits/StimImgGraceFraser.PNG","-20","","","","","-20","Grace Fraser","A",""
"","image-slider-response-modified","164","1390789","0.0-164.0","58140","DH-002","12:17:19","","","","","","","","","","","","assessment 3","","17896","components/portraits/StimImgFranklinReinhardt.PNG","5","","","","","4","Franklin Reinhardt","A",""
"","image-slider-response-modified","165","1391658","0.0-165.0","58140","DH-002","12:17:20","","","","","","","","","","","","assessment 4","","853","components/portraits/StimImgSylviaSteinetz.PNG","0","","","","","0","Sylvia Steinetz","A",""
"","image-slider-response-modified","166","1391975","0.0-166.0","58140","DH-002","12:17:21","","","","","","","","","","","","assessment 5","","305","components/portraits/StimImgElenaAlves.PNG","0","","","","","0","Elena Alves","A",""
"","image-slider-response-modified","167","1392543","0.0-167.0","58140","DH-002","12:17:21","","","","","","","","","","","","assessment 6","","558","components/portraits/StimImgMiguelAlves.PNG","0","","","","","0","Miguel Alves","A",""
"","image-slider-response-modified","168","1393140","0.0-168.0","58140","DH-002","12:17:22","","","","","","","","","","","","assessment 7","","583","components/portraits/StimImgHenryFraser.PNG","0","","","","","0","Henry Fraser","A",""
"","html-keyboard-response","169","1394192","0.0-169.0","58140","DH-002","12:17:23","","","","","","","","","","","","","","null","[""<p style=\""font-size: 36px; width: 1200px; line-height: 40px;\"">Returning to the video...""]","null","","","","","","","",""
"","browser-check","170","1395196","0.0-170.0","58140","DH-002","12:17:24","1440","900","true","firefox","131.0.0","false","Mac OS","true","59.88","true","true","Browser_Check","","","","","","","","","","","",""
"","video-keyboard-response","171","1468656","0.0-171.0","58140","DH-002","12:18:37","","","","","","","","","","","","video 13","","null","[""components/stim/StimVid_Undoing1.mp4""]","null","","","","","","","",""
"","image-slider-response-modified","172","1470698","0.0-172.0","58140","DH-002","12:18:39","","","","","","","","","","","","assessment 0","","2030","components/portraits/StimImgFernandoAlves.PNG","0","","","","","0","Fernando Alves","A",""
"","image-slider-response-modified","173","1470905","0.0-173.0","58140","DH-002","12:18:39","","","","","","","","","","","","assessment 1","","192","components/portraits/StimImgJonathanFraser.PNG","-5","","","","","-5","Jonathan Fraser","A",""
"","image-slider-response-modified","174","1471336","0.0-174.0","58140","DH-002","12:18:40","","","","","","","","","","","","assessment 2","","428","components/portraits/StimImgGraceFraser.PNG","-20","","","","","-20","Grace Fraser","A",""
"","image-slider-response-modified","175","1471520","0.0-175.0","58140","DH-002","12:18:40","","","","","","","","","","","","assessment 3","","178","components/portraits/StimImgFranklinReinhardt.PNG","5","","","","","5","Franklin Reinhardt","A",""
"","image-slider-response-modified","176","1471699","0.0-176.0","58140","DH-002","12:18:40","","","","","","","","","","","","assessment 4","","175","components/portraits/StimImgSylviaSteinetz.PNG","0","","","","","0","Sylvia Steinetz","A",""
"","image-slider-response-modified","177","1471894","0.0-177.0","58140","DH-002","12:18:40","","","","","","","","","","","","assessment 5","","192","components/portraits/StimImgElenaAlves.PNG","0","","","","","0","Elena Alves","A",""
"","image-slider-response-modified","178","1474168","0.0-178.0","58140","DH-002","12:18:43","","","","","","","","","","","","assessment 6","","2268","components/portraits/StimImgMiguelAlves.PNG","0","","","","","0","Miguel Alves","A",""
"","image-slider-response-modified","179","1474350","0.0-179.0","58140","DH-002","12:18:43","","","","","","","","","","","","assessment 7","","178","components/portraits/StimImgHenryFraser.PNG","0","","","","","0","Henry Fraser","A",""
"","html-keyboard-response","180","1475353","0.0-180.0","58140","DH-002","12:18:44","","","","","","","","","","","","","","null","[""<p style=\""font-size: 36px; width: 1200px; line-height: 40px;\"">Returning to the video...""]","null","","","","","","","",""
"","browser-check","181","1476337","0.0-181.0","58140","DH-002","12:18:45","1440","900","true","firefox","131.0.0","false","Mac OS","true","61.1","true","true","Browser_Check","","","","","","","","","","","",""
"","video-keyboard-response","182","1571686","0.0-182.0","58140","DH-002","12:20:20","","","","","","","","","","","","video 14","","null","[""components/stim/StimVid_Undoing1.mp4""]","null","","","","","","","",""
"","image-slider-response-modified","183","1577578","0.0-183.0","58140","DH-002","12:20:26","","","","","","","","","","","","assessment 0","","5880","components/portraits/StimImgFernandoAlves.PNG","0","","","","","0","Fernando Alves","A",""
"","image-slider-response-modified","184","1578256","0.0-184.0","58140","DH-002","12:20:27","","","","","","","","","","","","assessment 1","","661","components/portraits/StimImgJonathanFraser.PNG","-5","","","","","-5","Jonathan Fraser","A",""
"","image-slider-response-modified","185","1586173","0.0-185.0","58140","DH-002","12:20:35","","","","","","","","","","","","assessment 2","","7903","components/portraits/StimImgGraceFraser.PNG","-9","","","","","-20","Grace Fraser","A",""
"","image-slider-response-modified","186","1586986","0.0-186.0","58140","DH-002","12:20:36","","","","","","","","","","","","assessment 3","","798","components/portraits/StimImgFranklinReinhardt.PNG","5","","","","","5","Franklin Reinhardt","A",""
"","image-slider-response-modified","187","1587209","0.0-187.0","58140","DH-002","12:20:36","","","","","","","","","","","","assessment 4","","208","components/portraits/StimImgSylviaSteinetz.PNG","0","","","","","0","Sylvia Steinetz","A",""
"","image-slider-response-modified","188","1587406","0.0-188.0","58140","DH-002","12:20:36","","","","","","","","","","","","assessment 5","","181","components/portraits/StimImgElenaAlves.PNG","0","","","","","0","Elena Alves","A",""
"","image-slider-response-modified","189","1587645","0.0-189.0","58140","DH-002","12:20:36","","","","","","","","","","","","assessment 6","","233","components/portraits/StimImgMiguelAlves.PNG","0","","","","","0","Miguel Alves","A",""
"","image-slider-response-modified","190","1588087","0.0-190.0","58140","DH-002","12:20:37","","","","","","","","","","","","assessment 7","","436","components/portraits/StimImgHenryFraser.PNG","0","","","","","0","Henry Fraser","A",""
"","html-keyboard-response","191","1589214","0.0-191.0","58140","DH-002","12:20:38","","","","","","","","","","","","","","null","[""<p style=\""font-size: 36px; width: 1200px; line-height: 40px;\"">Returning to the video...""]","null","","","","","","","",""
"","browser-check","192","1590199","0.0-192.0","58140","DH-002","12:20:39","1440","900","true","firefox","131.0.0","false","Mac OS","true","61.04","true","true","Browser_Check","","","","","","","","","","","",""
"","video-keyboard-response","193","1669543","0.0-193.0","58140","DH-002","12:21:58","","","","","","","","","","","","video 15","","null","[""components/stim/StimVid_Undoing1.mp4""]","null","","","","","","","",""
"","image-slider-response-modified","194","1671619","0.0-194.0","58140","DH-002","12:22:0","","","","","","","","","","","","assessment 0","","2073","components/portraits/StimImgFernandoAlves.PNG","0","","","","","0","Fernando Alves","A",""
"","image-slider-response-modified","195","1671801","0.0-195.0","58140","DH-002","12:22:0","","","","","","","","","","","","assessment 1","","179","components/portraits/StimImgJonathanFraser.PNG","-5","","","","","-5","Jonathan Fraser","A",""
"","image-slider-response-modified","196","1671985","0.0-196.0","58140","DH-002","12:22:1","","","","","","","","","","","","assessment 2","","179","components/portraits/StimImgGraceFraser.PNG","-9","","","","","-9","Grace Fraser","A",""
"","image-slider-response-modified","197","1672152","0.0-197.0","58140","DH-002","12:22:1","","","","","","","","","","","","assessment 3","","164","components/portraits/StimImgFranklinReinhardt.PNG","5","","","","","5","Franklin Reinhardt","A",""
"","image-slider-response-modified","198","1672336","0.0-198.0","58140","DH-002","12:22:1","","","","","","","","","","","","assessment 4","","180","components/portraits/StimImgSylviaSteinetz.PNG","0","","","","","0","Sylvia Steinetz","A",""
"","image-slider-response-modified","199","1672503","0.0-199.0","58140","DH-002","12:22:1","","","","","","","","","","","","assessment 5","","161","components/portraits/StimImgElenaAlves.PNG","0","","","","","0","Elena Alves","A",""
"","image-slider-response-modified","200","1672670","0.0-200.0","58140","DH-002","12:22:1","","","","","","","","","","","","assessment 6","","164","components/portraits/StimImgMiguelAlves.PNG","0","","","","","0","Miguel Alves","A",""
"","image-slider-response-modified","201","1673015","0.0-201.0","58140","DH-002","12:22:2","","","","","","","","","","","","assessment 7","","340","components/portraits/StimImgHenryFraser.PNG","0","","","","","0","Henry Fraser","A",""
"","html-keyboard-response","202","1674018","0.0-202.0","58140","DH-002","12:22:3","","","","","","","","","","","","","","null","[""<p style=\""font-size: 36px; width: 1200px; line-height: 40px;\"">Returning to the video...""]","null","","","","","","","",""
"","browser-check","203","1675005","0.0-203.0","58140","DH-002","12:22:4","1440","900","true","firefox","131.0.0","false","Mac OS","true","60.85","true","true","Browser_Check","","","","","","","","","","","",""
"","video-keyboard-response","204","1748335","0.0-204.0","58140","DH-002","12:23:17","","","","","","","","","","","","video 16","","null","[""components/stim/StimVid_Undoing1.mp4""]","null","","","","","","","",""
"","image-slider-response-modified","205","1754639","0.0-205.0","58140","DH-002","12:23:23","","","","","","","","","","","","assessment 0","","6302","components/portraits/StimImgFernandoAlves.PNG","0","","","","","0","Fernando Alves","A",""
"","image-slider-response-modified","206","1754880","0.0-206.0","58140","DH-002","12:23:23","","","","","","","","","","","","assessment 1","","226","components/portraits/StimImgJonathanFraser.PNG","-5","","","","","-5","Jonathan Fraser","A",""
"","image-slider-response-modified","207","1755095","0.0-207.0","58140","DH-002","12:23:24","","","","","","","","","","","","assessment 2","","198","components/portraits/StimImgGraceFraser.PNG","-9","","","","","-9","Grace Fraser","A",""
"","image-slider-response-modified","208","1755389","0.0-208.0","58140","DH-002","12:23:24","","","","","","","","","","","","assessment 3","","281","components/portraits/StimImgFranklinReinhardt.PNG","5","","","","","5","Franklin Reinhardt","A",""
"","image-slider-response-modified","209","1755604","0.0-209.0","58140","DH-002","12:23:24","","","","","","","","","","","","assessment 4","","198","components/portraits/StimImgSylviaSteinetz.PNG","0","","","","","0","Sylvia Steinetz","A",""
"","image-slider-response-modified","210","1755860","0.0-210.0","58140","DH-002","12:23:24","","","","","","","","","","","","assessment 5","","242","components/portraits/StimImgElenaAlves.PNG","0","","","","","0","Elena Alves","A",""
"","image-slider-response-modified","211","1756043","0.0-211.0","58140","DH-002","12:23:25","","","","","","","","","","","","assessment 6","","170","components/portraits/StimImgMiguelAlves.PNG","0","","","","","0","Miguel Alves","A",""
"","image-slider-response-modified","212","1756298","0.0-212.0","58140","DH-002","12:23:25","","","","","","","","","","","","assessment 7","","242","components/portraits/StimImgHenryFraser.PNG","0","","","","","0","Henry Fraser","A",""
"","html-keyboard-response","213","1757399","0.0-213.0","58140","DH-002","12:23:26","","","","","","","","","","","","","","null","[""<p style=\""font-size: 36px; width: 1200px; line-height: 40px;\"">Returning to the video...""]","null","","","","","","","",""
"","browser-check","214","1758385","0.0-214.0","58140","DH-002","12:23:27","1440","900","true","firefox","131.0.0","false","Mac OS","true","60.91","true","true","Browser_Check","","","","","","","","","","","",""
"","preload","215","1798025","0.0-215.0","58140","DH-002","12:24:7","","","","","","","","","","","","Preload","true","","","","false","[]","[]","[]","","","",""
"","video-keyboard-response","216","1850392","0.0-216.0","58140","DH-002","","","","","","","","","","","","","video 17","","null","[""components/stim/StimVid_Undoing1.mp4""]","null","","","","","","","",""
"","video-keyboard-response","217","1869577","0.0-217.0","58140","DH-002","","","","","","","","","","","","","video 18","","null","[""components/stim/StimVid_Undoing2.mp4""]","null","","","","","","","",""
"","image-slider-response-modified","218","1877036","0.0-218.0","58140","DH-002","12:25:26","","","","","","","","","","","","assessment 0","","7438","components/portraits/StimImgFernandoAlves.PNG","0","","","","","0","Fernando Alves","A",""
"","image-slider-response-modified","219","1877241","0.0-219.0","58140","DH-002","12:25:26","","","","","","","","","","","","assessment 1","","191","components/portraits/StimImgJonathanFraser.PNG","-5","","","","","-5","Jonathan Fraser","A",""
"","image-slider-response-modified","220","1877522","0.0-220.0","58140","DH-002","12:25:26","","","","","","","","","","","","assessment 2","","263","components/portraits/StimImgGraceFraser.PNG","-9","","","","","-9","Grace Fraser","A",""
"","image-slider-response-modified","221","1877695","0.0-221.0","58140","DH-002","12:25:26","","","","","","","","","","","","assessment 3","","159","components/portraits/StimImgFranklinReinhardt.PNG","5","","","","","5","Franklin Reinhardt","A",""
"","image-slider-response-modified","222","1877902","0.0-222.0","58140","DH-002","12:25:26","","","","","","","","","","","","assessment 4","","189","components/portraits/StimImgSylviaSteinetz.PNG","0","","","","","0","Sylvia Steinetz","A",""
"","image-slider-response-modified","223","1878110","0.0-223.0","58140","DH-002","12:25:27","","","","","","","","","","","","assessment 5","","193","components/portraits/StimImgElenaAlves.PNG","0","","","","","0","Elena Alves","A",""
"","image-slider-response-modified","224","1878388","0.0-224.0","58140","DH-002","12:25:27","","","","","","","","","","","","assessment 6","","262","components/portraits/StimImgMiguelAlves.PNG","0","","","","","0","Miguel Alves","A",""
"","image-slider-response-modified","225","1878740","0.0-225.0","58140","DH-002","12:25:27","","","","","","","","","","","","assessment 7","","336","components/portraits/StimImgHenryFraser.PNG","0","","","","","0","Henry Fraser","A",""
"","html-keyboard-response","226","1879748","0.0-226.0","58140","DH-002","12:25:28","","","","","","","","","","","","","","null","[""<p style=\""font-size: 36px; width: 1200px; line-height: 40px;\"">Returning to the video...""]","null","","","","","","","",""
"","browser-check","227","1880733","0.0-227.0","58140","DH-002","12:25:29","1440","900","true","firefox","131.0.0","false","Mac OS","true","61.1","true","true","Browser_Check","","","","","","","","","","","",""
"","video-keyboard-response","228","1962137","0.0-228.0","58140","DH-002","12:26:51","","","","","","","","","","","","video18","","null","[""components/stim/StimVid_Undoing2.mp4""]","null","","","","","","","",""
"","image-slider-response-modified","229","1964700","0.0-229.0","58140","DH-002","12:26:53","","","","","","","","","","","","assessment 0","","2553","components/portraits/StimImgFernandoAlves.PNG","0","","","","","0","Fernando Alves","A",""
"","image-slider-response-modified","230","1964867","0.0-230.0","58140","DH-002","12:26:53","","","","","","","","","","","","assessment 1","","163","components/portraits/StimImgJonathanFraser.PNG","-5","","","","","-5","Jonathan Fraser","A",""
"","image-slider-response-modified","231","1965036","0.0-231.0","58140","DH-002","12:26:54","","","","","","","","","","","","assessment 2","","164","components/portraits/StimImgGraceFraser.PNG","-9","","","","","-9","Grace Fraser","A",""
"","image-slider-response-modified","232","1965201","0.0-232.0","58140","DH-002","12:26:54","","","","","","","","","","","","assessment 3","","161","components/portraits/StimImgFranklinReinhardt.PNG","5","","","","","5","Franklin Reinhardt","A",""
"","image-slider-response-modified","233","1965345","0.0-233.0","58140","DH-002","12:26:54","","","","","","","","","","","","assessment 4","","142","components/portraits/StimImgSylviaSteinetz.PNG","0","","","","","0","Sylvia Steinetz","A",""
"","image-slider-response-modified","234","1965504","0.0-234.0","58140","DH-002","12:26:54","","","","","","","","","","","","assessment 5","","154","components/portraits/StimImgElenaAlves.PNG","0","","","","","0","Elena Alves","A",""
"","image-slider-response-modified","235","1965663","0.0-235.0","58140","DH-002","12:26:54","","","","","","","","","","","","assessment 6","","156","components/portraits/StimImgMiguelAlves.PNG","0","","","","","0","Miguel Alves","A",""
"","image-slider-response-modified","236","1965830","0.0-236.0","58140","DH-002","12:26:54","","","","","","","","","","","","assessment 7","","164","components/portraits/StimImgHenryFraser.PNG","0","","","","","0","Henry Fraser","A",""
"","html-keyboard-response","237","1966834","0.0-237.0","58140","DH-002","12:26:55","","","","","","","","","","","","","","null","[""<p style=\""font-size: 36px; width: 1200px; line-height: 40px;\"">Returning to the video...""]","null","","","","","","","",""
"","browser-check","238","1967820","0.0-238.0","58140","DH-002","12:26:56","1440","900","true","firefox","131.0.0","false","Mac OS","true","61.1","true","true","Browser_Check","","","","","","","","","","","",""
"","video-keyboard-response","239","2049218","0.0-239.0","58140","DH-002","12:28:18","","","","","","","","","","","","video19","","null","[""components/stim/StimVid_Undoing2.mp4""]","null","","","","","","","",""
"","image-slider-response-modified","240","2051053","0.0-240.0","58140","DH-002","12:28:20","","","","","","","","","","","","assessment 0","","1833","components/portraits/StimImgFernandoAlves.PNG","0","","","","","0","Fernando Alves","A",""
"","image-slider-response-modified","241","2051261","0.0-241.0","58140","DH-002","12:28:20","","","","","","","","","","","","assessment 1","","205","components/portraits/StimImgJonathanFraser.PNG","-5","","","","","-5","Jonathan Fraser","A",""
"","image-slider-response-modified","242","2051420","0.0-242.0","58140","DH-002","12:28:20","","","","","","","","","","","","assessment 2","","153","components/portraits/StimImgGraceFraser.PNG","-9","","","","","-9","Grace Fraser","A",""
"","image-slider-response-modified","243","2051580","0.0-243.0","58140","DH-002","12:28:20","","","","","","","","","","","","assessment 3","","156","components/portraits/StimImgFranklinReinhardt.PNG","5","","","","","5","Franklin Reinhardt","A",""
"","image-slider-response-modified","244","2051763","0.0-244.0","58140","DH-002","12:28:20","","","","","","","","","","","","assessment 4","","178","components/portraits/StimImgSylviaSteinetz.PNG","0","","","","","0","Sylvia Steinetz","A",""
"","image-slider-response-modified","245","2051930","0.0-245.0","58140","DH-002","12:28:21","","","","","","","","","","","","assessment 5","","161","components/portraits/StimImgElenaAlves.PNG","0","","","","","0","Elena Alves","A",""
"","image-slider-response-modified","246","2052252","0.0-246.0","58140","DH-002","12:28:21","","","","","","","","","","","","assessment 6","","316","components/portraits/StimImgMiguelAlves.PNG","0","","","","","0","Miguel Alves","A",""
"","image-slider-response-modified","247","2052488","0.0-247.0","58140","DH-002","12:28:21","","","","","","","","","","","","assessment 7","","233","components/portraits/StimImgHenryFraser.PNG","0","","","","","0","Henry Fraser","A",""
"","html-keyboard-response","248","2053496","0.0-248.0","58140","DH-002","12:28:22","","","","","","","","","","","","","","null","[""<p style=\""font-size: 36px; width: 1200px; line-height: 40px;\"">Returning to the video...""]","null","","","","","","","",""
"","browser-check","249","2054481","0.0-249.0","58140","DH-002","12:28:23","1440","900","true","firefox","131.0.0","false","Mac OS","true","61.04","true","true","Browser_Check","","","","","","","","","","","",""
"","video-keyboard-response","250","2137981","0.0-250.0","58140","DH-002","12:29:47","","","","","","","","","","","","video20","","null","[""components/stim/StimVid_Undoing2.mp4""]","null","","","","","","","",""
"","image-slider-response-modified","251","2140668","0.0-251.0","58140","DH-002","12:29:49","","","","","","","","","","","","assessment 0","","2678","components/portraits/StimImgFernandoAlves.PNG","0","","","","","0","Fernando Alves","A",""
"","image-slider-response-modified","252","2147692","0.0-252.0","58140","DH-002","12:29:56","","","","","","","","","","","","assessment 1","","7009","components/portraits/StimImgJonathanFraser.PNG","-5","","","","","-5","Jonathan Fraser","A",""
"","image-slider-response-modified","253","2147858","0.0-253.0","58140","DH-002","12:29:56","","","","","","","","","","","","assessment 2","","148","components/portraits/StimImgGraceFraser.PNG","-9","","","","","-9","Grace Fraser","A",""
"","image-slider-response-modified","254","2148002","0.0-254.0","58140","DH-002","12:29:57","","","","","","","","","","","","assessment 3","","131","components/portraits/StimImgFranklinReinhardt.PNG","5","","","","","5","Franklin Reinhardt","A",""
"","image-slider-response-modified","255","2149341","0.0-255.0","58140","DH-002","12:29:58","","","","","","","","","","","","assessment 4","","1325","components/portraits/StimImgSylviaSteinetz.PNG","0","","","","","0","Sylvia Steinetz","A",""
"","image-slider-response-modified","256","2150696","0.0-256.0","58140","DH-002","12:29:59","","","","","","","","","","","","assessment 5","","1344","components/portraits/StimImgElenaAlves.PNG","0","","","","","0","Elena Alves","A",""
"","image-slider-response-modified","257","2151293","0.0-257.0","58140","DH-002","12:30:0","","","","","","","","","","","","assessment 6","","587","components/portraits/StimImgMiguelAlves.PNG","0","","","","","0","Miguel Alves","A",""
"","image-slider-response-modified","258","2156031","0.0-258.0","58140","DH-002","12:30:5","","","","","","","","","","","","assessment 7","","4723","components/portraits/StimImgHenryFraser.PNG","0","","","","","0","Henry Fraser","A",""
"","html-keyboard-response","259","2157040","0.0-259.0","58140","DH-002","12:30:6","","","","","","","","","","","","","","null","[""<p style=\""font-size: 36px; width: 1200px; line-height: 40px;\"">Returning to the video...""]","null","","","","","","","",""
"","browser-check","260","2158028","0.0-260.0","58140","DH-002","12:30:7","1440","900","true","firefox","131.0.0","false","Mac OS","true","61.16","true","true","Browser_Check","","","","","","","","","","","",""
"","video-keyboard-response","261","2257362","0.0-261.0","58140","DH-002","12:31:46","","","","","","","","","","","","video21","","null","[""components/stim/StimVid_Undoing2.mp4""]","null","","","","","","","",""
"","image-slider-response-modified","262","2260621","0.0-262.0","58140","DH-002","12:31:49","","","","","","","","","","","","assessment 0","","3252","components/portraits/StimImgFernandoAlves.PNG","0","","","","","0","Fernando Alves","A",""
"","image-slider-response-modified","263","2263930","0.0-263.0","58140","DH-002","12:31:53","","","","","","","","","","","","assessment 1","","3294","components/portraits/StimImgJonathanFraser.PNG","-5","","","","","-5","Jonathan Fraser","A",""
"","image-slider-response-modified","264","2265447","0.0-264.0","58140","DH-002","12:31:54","","","","","","","","","","","","assessment 2","","1503","components/portraits/StimImgGraceFraser.PNG","-9","","","","","-9","Grace Fraser","A",""
"","image-slider-response-modified","265","2270757","0.0-265.0","58140","DH-002","12:31:59","","","","","","","","","","","","assessment 3","","5296","components/portraits/StimImgFranklinReinhardt.PNG","7","","","","","5","Franklin Reinhardt","A",""
"","image-slider-response-modified","266","2283380","0.0-266.0","58140","DH-002","12:32:12","","","","","","","","","","","","assessment 4","","12607","components/portraits/StimImgSylviaSteinetz.PNG","22","","","","","0","Sylvia Steinetz","A",""
"","image-slider-response-modified","267","2305611","0.0-267.0","58140","DH-002","12:32:34","","","","","","","","","","","","assessment 5","","22222","components/portraits/StimImgElenaAlves.PNG","0","","","","","0","Elena Alves","A",""
"","image-slider-response-modified","268","2313267","0.0-268.0","58140","DH-002","12:32:42","","","","","","","","","","","","assessment 6","","7647","components/portraits/StimImgMiguelAlves.PNG","50","","","","","0","Miguel Alves","A",""
"","image-slider-response-modified","269","2321390","0.0-269.0","58140","DH-002","12:32:50","","","","","","","","","","","","assessment 7","","8110","components/portraits/StimImgHenryFraser.PNG","25","","","","","0","Henry Fraser","A",""
"","html-keyboard-response","270","2322398","0.0-270.0","58140","DH-002","12:32:51","","","","","","","","","","","","","","null","[""<p style=\""font-size: 36px; width: 1200px; line-height: 40px;\"">Returning to the video...""]","null","","","","","","","",""
"","browser-check","271","2323386","0.0-271.0","58140","DH-002","12:32:52","1440","900","true","firefox","131.0.0","false","Mac OS","true","61.1","true","true","Browser_Check","","","","","","","","","","","",""
"","video-keyboard-response","272","2396649","0.0-272.0","58140","DH-002","12:34:5","","","","","","","","","","","","video22","","null","[""components/stim/StimVid_Undoing2.mp4""]","null","","","","","","","",""
"","image-slider-response-modified","273","2406285","0.0-273.0","58140","DH-002","12:34:15","","","","","","","","","","","","assessment 0","","9621","components/portraits/StimImgFernandoAlves.PNG","0","","","","","0","Fernando Alves","A",""
"","image-slider-response-modified","274","2406466","0.0-274.0","58140","DH-002","12:34:15","","","","","","","","","","","","assessment 1","","166","components/portraits/StimImgJonathanFraser.PNG","-5","","","","","-5","Jonathan Fraser","A",""
"","image-slider-response-modified","275","2406633","0.0-275.0","58140","DH-002","12:34:15","","","","","","","","","","","","assessment 2","","153","components/portraits/StimImgGraceFraser.PNG","-9","","","","","-9","Grace Fraser","A",""
"","image-slider-response-modified","276","2406785","0.0-276.0","58140","DH-002","12:34:15","","","","","","","","","","","","assessment 3","","139","components/portraits/StimImgFranklinReinhardt.PNG","7","","","","","7","Franklin Reinhardt","A",""
"","image-slider-response-modified","277","2406946","0.0-277.0","58140","DH-002","12:34:16","","","","","","","","","","","","assessment 4","","148","components/portraits/StimImgSylviaSteinetz.PNG","22","","","","","22","Sylvia Steinetz","A",""
"","image-slider-response-modified","278","2407330","0.0-278.0","58140","DH-002","12:34:16","","","","","","","","","","","","assessment 5","","370","components/portraits/StimImgElenaAlves.PNG","0","","","","","0","Elena Alves","A",""
"","image-slider-response-modified","279","2407551","0.0-279.0","58140","DH-002","12:34:16","","","","","","","","","","","","assessment 6","","210","components/portraits/StimImgMiguelAlves.PNG","50","","","","","50","Miguel Alves","A",""
"","image-slider-response-modified","280","2407727","0.0-280.0","58140","DH-002","12:34:16","","","","","","","","","","","","assessment 7","","160","components/portraits/StimImgHenryFraser.PNG","25","","","","","25","Henry Fraser","A",""
"","html-keyboard-response","281","2408738","0.0-281.0","58140","DH-002","12:34:17","","","","","","","","","","","","","","null","[""<p style=\""font-size: 36px; width: 1200px; line-height: 40px;\"">Returning to the video...""]","null","","","","","","","",""
"","browser-check","282","2409725","0.0-282.0","58140","DH-002","12:34:18","1440","900","true","firefox","131.0.0","false","Mac OS","true","60.98","true","true","Browser_Check","","","","","","","","","","","",""
"","video-keyboard-response","283","2505103","0.0-283.0","58140","DH-002","12:35:54","","","","","","","","","","","","video23","","null","[""components/stim/StimVid_Undoing2.mp4""]","null","","","","","","","",""
"","image-slider-response-modified","284","2509988","0.0-284.0","58140","DH-002","12:35:59","","","","","","","","","","","","assessment 0","","4877","components/portraits/StimImgFernandoAlves.PNG","0","","","","","0","Fernando Alves","A",""
"","image-slider-response-modified","285","2510164","0.0-285.0","58140","DH-002","12:35:59","","","","","","","","","","","","assessment 1","","159","components/portraits/StimImgJonathanFraser.PNG","-5","","","","","-5","Jonathan Fraser","A",""
"","image-slider-response-modified","286","2510323","0.0-286.0","58140","DH-002","12:35:59","","","","","","","","","","","","assessment 2","","143","components/portraits/StimImgGraceFraser.PNG","-9","","","","","-9","Grace Fraser","A",""
"","image-slider-response-modified","287","2510595","0.0-287.0","58140","DH-002","12:35:59","","","","","","","","","","","","assessment 3","","261","components/portraits/StimImgFranklinReinhardt.PNG","7","","","","","7","Franklin Reinhardt","A",""
"","image-slider-response-modified","288","2510762","0.0-288.0","58140","DH-002","12:35:59","","","","","","","","","","","","assessment 4","","150","components/portraits/StimImgSylviaSteinetz.PNG","22","","","","","22","Sylvia Steinetz","A",""
"","image-slider-response-modified","289","2511081","0.0-289.0","58140","DH-002","12:36:0","","","","","","","","","","","","assessment 5","","307","components/portraits/StimImgElenaAlves.PNG","0","","","","","0","Elena Alves","A",""
"","image-slider-response-modified","290","2511224","0.0-290.0","58140","DH-002","12:36:0","","","","","","","","","","","","assessment 6","","130","components/portraits/StimImgMiguelAlves.PNG","50","","","","","50","Miguel Alves","A",""
"","image-slider-response-modified","291","2511400","0.0-291.0","58140","DH-002","12:36:0","","","","","","","","","","","","assessment 7","","162","components/portraits/StimImgHenryFraser.PNG","25","","","","","25","Henry Fraser","A",""
"","html-keyboard-response","292","2512407","0.0-292.0","58140","DH-002","12:36:1","","","","","","","","","","","","","","null","[""<p style=\""font-size: 36px; width: 1200px; line-height: 40px;\"">Returning to the video...""]","null","","","","","","","",""
"","browser-check","293","2513394","0.0-293.0","58140","DH-002","12:36:2","1440","900","true","firefox","131.0.0","false","Mac OS","true","60.98","true","true","Browser_Check","","","","","","","","","","","",""
"","video-keyboard-response","294","2592893","0.0-294.0","58140","DH-002","12:37:21","","","","","","","","","","","","video24","","null","[""components/stim/StimVid_Undoing2.mp4""]","null","","","","","","","",""
"","image-slider-response-modified","295","2595637","0.0-295.0","58140","DH-002","12:37:24","","","","","","","","","","","","assessment 0","","2742","components/portraits/StimImgFernandoAlves.PNG","0","","","","","0","Fernando Alves","A",""
"","image-slider-response-modified","296","2595797","0.0-296.0","58140","DH-002","12:37:24","","","","","","","","","","","","assessment 1","","159","components/portraits/StimImgJonathanFraser.PNG","-5","","","","","-5","Jonathan Fraser","A",""
"","image-slider-response-modified","297","2595982","0.0-297.0","58140","DH-002","12:37:25","","","","","","","","","","","","assessment 2","","183","components/portraits/StimImgGraceFraser.PNG","-9","","","","","-9","Grace Fraser","A",""
"","image-slider-response-modified","298","2596150","0.0-298.0","58140","DH-002","12:37:25","","","","","","","","","","","","assessment 3","","163","components/portraits/StimImgFranklinReinhardt.PNG","7","","","","","7","Franklin Reinhardt","A",""
"","image-slider-response-modified","299","2596436","0.0-299.0","58140","DH-002","12:37:25","","","","","","","","","","","","assessment 4","","282","components/portraits/StimImgSylviaSteinetz.PNG","22","","","","","22","Sylvia Steinetz","A",""
"","image-slider-response-modified","300","2596701","0.0-300.0","58140","DH-002","12:37:25","","","","","","","","","","","","assessment 5","","259","components/portraits/StimImgElenaAlves.PNG","0","","","","","0","Elena Alves","A",""
"","image-slider-response-modified","301","2596843","0.0-301.0","58140","DH-002","12:37:25","","","","","","","","","","","","assessment 6","","138","components/portraits/StimImgMiguelAlves.PNG","50","","","","","50","Miguel Alves","A",""
"","image-slider-response-modified","302","2597050","0.0-302.0","58140","DH-002","12:37:26","","","","","","","","","","","","assessment 7","","205","components/portraits/StimImgHenryFraser.PNG","25","","","","","25","Henry Fraser","A",""
"","html-keyboard-response","303","2598055","0.0-303.0","58140","DH-002","12:37:27","","","","","","","","","","","","","","null","[""<p style=\""font-size: 36px; width: 1200px; line-height: 40px;\"">Returning to the video...""]","null","","","","","","","",""
"","browser-check","304","2599043","0.0-304.0","58140","DH-002","12:37:28","1440","900","true","firefox","131.0.0","false","Mac OS","true","61.04","true","true","Browser_Check","","","","","","","","","","","",""
"","video-keyboard-response","305","2668397","0.0-305.0","58140","DH-002","12:38:37","","","","","","","","","","","","video25","","null","[""components/stim/StimVid_Undoing2.mp4""]","null","","","","","","","",""
"","image-slider-response-modified","306","2672556","0.0-306.0","58140","DH-002","12:38:41","","","","","","","","","","","","assessment 0","","4157","components/portraits/StimImgFernandoAlves.PNG","0","","","","","0","Fernando Alves","A",""
"","image-slider-response-modified","307","2672723","0.0-307.0","58140","DH-002","12:38:41","","","","","","","","","","","","assessment 1","","162","components/portraits/StimImgJonathanFraser.PNG","-5","","","","","-5","Jonathan Fraser","A",""
"","image-slider-response-modified","308","2672899","0.0-308.0","58140","DH-002","12:38:41","","","","","","","","","","","","assessment 2","","171","components/portraits/StimImgGraceFraser.PNG","-9","","","","","-9","Grace Fraser","A",""
"","image-slider-response-modified","309","2673067","0.0-309.0","58140","DH-002","12:38:42","","","","","","","","","","","","assessment 3","","164","components/portraits/StimImgFranklinReinhardt.PNG","7","","","","","7","Franklin Reinhardt","A",""
"","image-slider-response-modified","310","2673202","0.0-310.0","58140","DH-002","12:38:42","","","","","","","","","","","","assessment 4","","129","components/portraits/StimImgSylviaSteinetz.PNG","22","","","","","22","Sylvia Steinetz","A",""
"","image-slider-response-modified","311","2673504","0.0-311.0","58140","DH-002","12:38:42","","","","","","","","","","","","assessment 5","","299","components/portraits/StimImgElenaAlves.PNG","0","","","","","0","Elena Alves","A",""
"","image-slider-response-modified","312","2673679","0.0-312.0","58140","DH-002","12:38:42","","","","","","","","","","","","assessment 6","","171","components/portraits/StimImgMiguelAlves.PNG","50","","","","","50","Miguel Alves","A",""
"","image-slider-response-modified","313","2674103","0.0-313.0","58140","DH-002","12:38:43","","","","","","","","","","","","assessment 7","","421","components/portraits/StimImgHenryFraser.PNG","25","","","","","25","Henry Fraser","A",""
"","html-keyboard-response","314","2675109","0.0-314.0","58140","DH-002","12:38:44","","","","","","","","","","","","","","null","[""<p style=\""font-size: 36px; width: 1200px; line-height: 40px;\"">Returning to the video...""]","null","","","","","","","",""
"","browser-check","315","2676095","0.0-315.0","58140","DH-002","12:38:45","1440","900","true","firefox","131.0.0","false","Mac OS","true","61.04","true","true","Browser_Check","","","","","","","","","","","",""
"","video-keyboard-response","316","2801409","0.0-316.0","58140","DH-002","12:40:50","","","","","","","","","","","","video26","","null","[""components/stim/StimVid_Undoing2.mp4""]","null","","","","","","","",""
"","image-slider-response-modified","317","2876425","0.0-317.0","58140","DH-002","12:42:5","","","","","","","","","","","","assessment 0","","75007","components/portraits/StimImgFernandoAlves.PNG","0","","","","","0","Fernando Alves","A",""
"","image-slider-response-modified","318","2876602","0.0-318.0","58140","DH-002","12:42:5","","","","","","","","","","","","assessment 1","","167","components/portraits/StimImgJonathanFraser.PNG","-5","","","","","-5","Jonathan Fraser","A",""
"","image-slider-response-modified","319","2876784","0.0-319.0","58140","DH-002","12:42:5","","","","","","","","","","","","assessment 2","","168","components/portraits/StimImgGraceFraser.PNG","-9","","","","","-9","Grace Fraser","A",""
"","image-slider-response-modified","320","2876944","0.0-320.0","58140","DH-002","12:42:6","","","","","","","","","","","","assessment 3","","148","components/portraits/StimImgFranklinReinhardt.PNG","7","","","","","7","Franklin Reinhardt","A",""
"","image-slider-response-modified","321","2877112","0.0-321.0","58140","DH-002","12:42:6","","","","","","","","","","","","assessment 4","","155","components/portraits/StimImgSylviaSteinetz.PNG","22","","","","","22","Sylvia Steinetz","A",""
"","image-slider-response-modified","322","2877614","0.0-322.0","58140","DH-002","12:42:6","","","","","","","","","","","","assessment 5","","492","components/portraits/StimImgElenaAlves.PNG","0","","","","","0","Elena Alves","A",""
"","image-slider-response-modified","323","2878180","0.0-323.0","58140","DH-002","12:42:7","","","","","","","","","","","","assessment 6","","554","components/portraits/StimImgMiguelAlves.PNG","50","","","","","50","Miguel Alves","A",""
"","image-slider-response-modified","324","2878514","0.0-324.0","58140","DH-002","12:42:7","","","","","","","","","","","","assessment 7","","323","components/portraits/StimImgHenryFraser.PNG","25","","","","","25","Henry Fraser","A",""
"","html-keyboard-response","325","2879517","0.0-325.0","58140","DH-002","12:42:8","","","","","","","","","","","","","","null","[""<p style=\""font-size: 36px; width: 1200px; line-height: 40px;\"">Returning to the video...""]","null","","","","","","","",""
"","browser-check","326","2880504","0.0-326.0","58140","DH-002","12:42:9","1440","900","true","firefox","131.0.0","false","Mac OS","true","60.85","true","true","Browser_Check","","","","","","","","","","","",""
"","video-keyboard-response","327","2951967","0.0-327.0","58140","DH-002","12:43:21","","","","","","","","","","","","video27","","null","[""components/stim/StimVid_Undoing2.mp4""]","null","","","","","","","",""
"","image-slider-response-modified","328","2954758","0.0-328.0","58140","DH-002","12:43:23","","","","","","","","","","","","assessment 0","","2780","components/portraits/StimImgFernandoAlves.PNG","0","","","","","0","Fernando Alves","A",""
"","image-slider-response-modified","329","2955005","0.0-329.0","58140","DH-002","12:43:24","","","","","","","","","","","","assessment 1","","242","components/portraits/StimImgJonathanFraser.PNG","-5","","","","","-5","Jonathan Fraser","A",""
"","image-slider-response-modified","330","2955245","0.0-330.0","58140","DH-002","12:43:24","","","","","","","","","","","","assessment 2","","236","components/portraits/StimImgGraceFraser.PNG","-9","","","","","-9","Grace Fraser","A",""
"","image-slider-response-modified","331","2955994","0.0-331.0","58140","DH-002","12:43:25","","","","","","","","","","","","assessment 3","","745","components/portraits/StimImgFranklinReinhardt.PNG","7","","","","","7","Franklin Reinhardt","A",""
"","image-slider-response-modified","332","2956209","0.0-332.0","58140","DH-002","12:43:25","","","","","","","","","","","","assessment 4","","211","components/portraits/StimImgSylviaSteinetz.PNG","22","","","","","22","Sylvia Steinetz","A",""
"","image-slider-response-modified","333","2956441","0.0-333.0","58140","DH-002","12:43:25","","","","","","","","","","","","assessment 5","","230","components/portraits/StimImgElenaAlves.PNG","0","","","","","0","Elena Alves","A",""
"","image-slider-response-modified","334","2956648","0.0-334.0","58140","DH-002","12:43:25","","","","","","","","","","","","assessment 6","","204","components/portraits/StimImgMiguelAlves.PNG","50","","","","","50","Miguel Alves","A",""
"","image-slider-response-modified","335","2956785","0.0-335.0","58140","DH-002","12:43:25","","","","","","","","","","","","assessment 7","","133","components/portraits/StimImgHenryFraser.PNG","25","","","","","25","Henry Fraser","A",""
"","html-keyboard-response","336","2957793","0.0-336.0","58140","DH-002","12:43:26","","","","","","","","","","","","","","null","[""<p style=\""font-size: 36px; width: 1200px; line-height: 40px;\"">Returning to the video...""]","null","","","","","","","",""
"","browser-check","337","2958781","0.0-337.0","58140","DH-002","12:43:27","1440","900","true","firefox","131.0.0","false","Mac OS","true","60.85","true","true","Browser_Check","","","","","","","","","","","",""
"","video-keyboard-response","338","3050318","0.0-338.0","58140","DH-002","12:44:59","","","","","","","","","","","","video28","","null","[""components/stim/StimVid_Undoing2.mp4""]","null","","","","","","","",""
"","image-slider-response-modified","339","3102546","0.0-339.0","58140","DH-002","12:45:51","","","","","","","","","","","","assessment 0","","52222","components/portraits/StimImgFernandoAlves.PNG","0","","","","","0","Fernando Alves","A",""
"","image-slider-response-modified","340","3102730","0.0-340.0","58140","DH-002","12:45:51","","","","","","","","","","","","assessment 1","","170","components/portraits/StimImgJonathanFraser.PNG","-5","","","","","-5","Jonathan Fraser","A",""
"","image-slider-response-modified","341","3102872","0.0-341.0","58140","DH-002","12:45:51","","","","","","","","","","","","assessment 2","","127","components/portraits/StimImgGraceFraser.PNG","-9","","","","","-9","Grace Fraser","A",""
"","image-slider-response-modified","342","3102992","0.0-342.0","58140","DH-002","12:45:52","","","","","","","","","","","","assessment 3","","110","components/portraits/StimImgFranklinReinhardt.PNG","7","","","","","7","Franklin Reinhardt","A",""
"","image-slider-response-modified","343","3103127","0.0-343.0","58140","DH-002","12:45:52","","","","","","","","","","","","assessment 4","","122","components/portraits/StimImgSylviaSteinetz.PNG","22","","","","","22","Sylvia Steinetz","A",""
"","image-slider-response-modified","344","3103254","0.0-344.0","58140","DH-002","12:45:52","","","","","","","","","","","","assessment 5","","118","components/portraits/StimImgElenaAlves.PNG","0","","","","","0","Elena Alves","A",""
"","image-slider-response-modified","345","3103408","0.0-345.0","58140","DH-002","12:45:52","","","","","","","","","","","","assessment 6","","144","components/portraits/StimImgMiguelAlves.PNG","50","","","","","50","Miguel Alves","A",""
"","image-slider-response-modified","346","3103574","0.0-346.0","58140","DH-002","12:45:52","","","","","","","","","","","","assessment 7","","152","components/portraits/StimImgHenryFraser.PNG","25","","","","","25","Henry Fraser","A",""
"","html-keyboard-response","347","3104581","0.0-347.0","58140","DH-002","12:45:53","","","","","","","","","","","","","","null","[""<p style=\""font-size: 36px; width: 1200px; line-height: 40px;\"">Returning to the video...""]","null","","","","","","","",""
"","browser-check","348","3105567","0.0-348.0","58140","DH-002","12:45:54","1440","900","true","firefox","131.0.0","false","Mac OS","true","60.91","true","true","Browser_Check","","","","","","","","","","","",""
"","video-keyboard-response","349","3183034","0.0-349.0","58140","DH-002","12:47:12","","","","","","","","","","","","video29","","null","[""components/stim/StimVid_Undoing2.mp4""]","null","","","","","","","",""
"","image-slider-response-modified","350","3185247","0.0-350.0","58140","DH-002","12:47:14","","","","","","","","","","","","assessment 0","","2203","components/portraits/StimImgFernandoAlves.PNG","0","","","","","0","Fernando Alves","A",""
"","image-slider-response-modified","351","3185607","0.0-351.0","58140","DH-002","12:47:14","","","","","","","","","","","","assessment 1","","349","components/portraits/StimImgJonathanFraser.PNG","-5","","","","","-5","Jonathan Fraser","A",""
"","image-slider-response-modified","352","3185823","0.0-352.0","58140","DH-002","12:47:14","","","","","","","","","","","","assessment 2","","198","components/portraits/StimImgGraceFraser.PNG","-9","","","","","-9","Grace Fraser","A",""
"","image-slider-response-modified","353","3185990","0.0-353.0","58140","DH-002","12:47:15","","","","","","","","","","","","assessment 3","","154","components/portraits/StimImgFranklinReinhardt.PNG","7","","","","","7","Franklin Reinhardt","A",""
"","image-slider-response-modified","354","3186165","0.0-354.0","58140","DH-002","12:47:15","","","","","","","","","","","","assessment 4","","161","components/portraits/StimImgSylviaSteinetz.PNG","22","","","","","22","Sylvia Steinetz","A",""
"","image-slider-response-modified","355","3186589","0.0-355.0","58140","DH-002","12:47:15","","","","","","","","","","","","assessment 5","","411","components/portraits/StimImgElenaAlves.PNG","0","","","","","0","Elena Alves","A",""
"","image-slider-response-modified","356","3186908","0.0-356.0","58140","DH-002","12:47:16","","","","","","","","","","","","assessment 6","","308","components/portraits/StimImgMiguelAlves.PNG","50","","","","","50","Miguel Alves","A",""
"","image-slider-response-modified","357","3187808","0.0-357.0","58140","DH-002","12:47:16","","","","","","","","","","","","assessment 7","","886","components/portraits/StimImgHenryFraser.PNG","25","","","","","25","Henry Fraser","A",""
"","html-keyboard-response","358","3188816","0.0-358.0","58140","DH-002","12:47:17","","","","","","","","","","","","","","null","[""<p style=\""font-size: 36px; width: 1200px; line-height: 40px;\"">Returning to the video...""]","null","","","","","","","",""
"","browser-check","359","3189802","0.0-359.0","58140","DH-002","12:47:18","1440","900","true","firefox","131.0.0","false","Mac OS","true","60.85","true","true","Browser_Check","","","","","","","","","","","",""
"","video-keyboard-response","360","3261211","0.0-360.0","58140","DH-002","12:48:30","","","","","","","","","","","","video30","","null","[""components/stim/StimVid_Undoing2.mp4""]","null","","","","","","","",""
"","image-slider-response-modified","361","3263678","0.0-361.0","58140","DH-002","12:48:32","","","","","","","","","","","","assessment 0","","2463","components/portraits/StimImgFernandoAlves.PNG","0","","","","","0","Fernando Alves","A",""
"","image-slider-response-modified","362","3263836","0.0-362.0","58140","DH-002","12:48:32","","","","","","","","","","","","assessment 1","","155","components/portraits/StimImgJonathanFraser.PNG","-5","","","","","-5","Jonathan Fraser","A",""
"","image-slider-response-modified","363","3263990","0.0-363.0","58140","DH-002","12:48:33","","","","","","","","","","","","assessment 2","","152","components/portraits/StimImgGraceFraser.PNG","-9","","","","","-9","Grace Fraser","A",""
"","image-slider-response-modified","364","3264133","0.0-364.0","58140","DH-002","12:48:33","","","","","","","","","","","","assessment 3","","139","components/portraits/StimImgFranklinReinhardt.PNG","7","","","","","7","Franklin Reinhardt","A",""
"","image-slider-response-modified","365","3264275","0.0-365.0","58140","DH-002","12:48:33","","","","","","","","","","","","assessment 4","","139","components/portraits/StimImgSylviaSteinetz.PNG","22","","","","","22","Sylvia Steinetz","A",""
"","image-slider-response-modified","366","3264411","0.0-366.0","58140","DH-002","12:48:33","","","","","","","","","","","","assessment 5","","134","components/portraits/StimImgElenaAlves.PNG","0","","","","","0","Elena Alves","A",""
"","image-slider-response-modified","367","3264555","0.0-367.0","58140","DH-002","12:48:33","","","","","","","","","","","","assessment 6","","142","components/portraits/StimImgMiguelAlves.PNG","50","","","","","50","Miguel Alves","A",""
"","image-slider-response-modified","368","3264700","0.0-368.0","58140","DH-002","12:48:33","","","","","","","","","","","","assessment 7","","142","components/portraits/StimImgHenryFraser.PNG","25","","","","","25","Henry Fraser","A",""
"","html-keyboard-response","369","3265708","0.0-369.0","58140","DH-002","12:48:34","","","","","","","","","","","","","","null","[""<p style=\""font-size: 36px; width: 1200px; line-height: 40px;\"">Returning to the video...""]","null","","","","","","","",""
"","browser-check","370","3266693","0.0-370.0","58140","DH-002","12:48:35","1440","900","true","firefox","131.0.0","false","Mac OS","true","61.1","true","true","Browser_Check","","","","","","","","","","","",""
"","video-keyboard-response","371","3336030","0.0-371.0","58140","DH-002","12:49:45","","","","","","","","","","","","video31","","null","[""components/stim/StimVid_Undoing2.mp4""]","null","","","","","","","",""
"","image-slider-response-modified","372","3348857","0.0-372.0","58140","DH-002","12:49:57","","","","","","","","","","","","assessment 0","","12825","components/portraits/StimImgFernandoAlves.PNG","0","","","","","0","Fernando Alves","A",""
"","image-slider-response-modified","373","3349030","0.0-373.0","58140","DH-002","12:49:58","","","","","","","","","","","","assessment 1","","164","components/portraits/StimImgJonathanFraser.PNG","-5","","","","","-5","Jonathan Fraser","A",""
"","image-slider-response-modified","374","3349191","0.0-374.0","58140","DH-002","12:49:58","","","","","","","","","","","","assessment 2","","156","components/portraits/StimImgGraceFraser.PNG","-9","","","","","-9","Grace Fraser","A",""
"","image-slider-response-modified","375","3349335","0.0-375.0","58140","DH-002","12:49:58","","","","","","","","","","","","assessment 3","","140","components/portraits/StimImgFranklinReinhardt.PNG","7","","","","","7","Franklin Reinhardt","A",""
"","image-slider-response-modified","376","3349461","0.0-376.0","58140","DH-002","12:49:58","","","","","","","","","","","","assessment 4","","121","components/portraits/StimImgSylviaSteinetz.PNG","22","","","","","22","Sylvia Steinetz","A",""
"","image-slider-response-modified","377","3349580","0.0-377.0","58140","DH-002","12:49:58","","","","","","","","","","","","assessment 5","","115","components/portraits/StimImgElenaAlves.PNG","0","","","","","0","Elena Alves","A",""
"","image-slider-response-modified","378","3349700","0.0-378.0","58140","DH-002","12:49:58","","","","","","","","","","","","assessment 6","","115","components/portraits/StimImgMiguelAlves.PNG","50","","","","","50","Miguel Alves","A",""
"","image-slider-response-modified","379","3349820","0.0-379.0","58140","DH-002","12:49:58","","","","","","","","","","","","assessment 7","","117","components/portraits/StimImgHenryFraser.PNG","25","","","","","25","Henry Fraser","A",""
"","html-keyboard-response","380","3350877","0.0-380.0","58140","DH-002","12:49:59","","","","","","","","","","","","","","null","[""<p style=\""font-size: 36px; width: 1200px; line-height: 40px;\"">Returning to the video...""]","null","","","","","","","",""
"","browser-check","381","3351863","0.0-381.0","58140","DH-002","12:50:0","1440","900","true","firefox","131.0.0","false","Mac OS","true","61.35","true","true","Browser_Check","","","","","","","","","","","",""
"","video-keyboard-response","382","3449267","0.0-382.0","58140","DH-002","12:51:38","","","","","","","","","","","","video32","","null","[""components/stim/StimVid_Undoing2.mp4""]","null","","","","","","","",""
"","image-slider-response-modified","383","22797478","0.0-383.0","58140","DH-002","18:14:6","","","","","","","","","","","","assessment 0","","1494855","components/portraits/StimImgFernandoAlves.PNG","0","","","","","0","Fernando Alves","A",""
"","image-slider-response-modified","384","22797970","0.0-384.0","58140","DH-002","18:14:7","","","","","","","","","","","","assessment 1","","469","components/portraits/StimImgJonathanFraser.PNG","-5","","","","","-5","Jonathan Fraser","A",""
"","image-slider-response-modified","385","22798114","0.0-385.0","58140","DH-002","18:14:7","","","","","","","","","","","","assessment 2","","135","components/portraits/StimImgGraceFraser.PNG","-9","","","","","-9","Grace Fraser","A",""
"","image-slider-response-modified","386","22798260","0.0-386.0","58140","DH-002","18:14:7","","","","","","","","","","","","assessment 3","","138","components/portraits/StimImgFranklinReinhardt.PNG","7","","","","","7","Franklin Reinhardt","A",""
"","image-slider-response-modified","387","22798418","0.0-387.0","58140","DH-002","18:14:7","","","","","","","","","","","","assessment 4","","150","components/portraits/StimImgSylviaSteinetz.PNG","22","","","","","22","Sylvia Steinetz","A",""
"","image-slider-response-modified","388","22798833","0.0-388.0","58140","DH-002","18:14:7","","","","","","","","","","","","assessment 5","","402","components/portraits/StimImgElenaAlves.PNG","0","","","","","0","Elena Alves","A",""
"","image-slider-response-modified","389","22799009","0.0-389.0","58140","DH-002","18:14:8","","","","","","","","","","","","assessment 6","","173","components/portraits/StimImgMiguelAlves.PNG","50","","","","","50","Miguel Alves","A",""
"","image-slider-response-modified","390","22799312","0.0-390.0","58140","DH-002","18:14:8","","","","","","","","","","","","assessment 7","","296","components/portraits/StimImgHenryFraser.PNG","25","","","","","25","Henry Fraser","A",""
"","html-keyboard-response","391","22800319","0.0-391.0","58140","DH-002","18:14:9","","","","","","","","","","","","","","null","[""<p style=\""font-size: 36px; width: 1200px; line-height: 40px;\"">Returning to the video...""]","null","","","","","","","",""
"","browser-check","392","22801309","0.0-392.0","58140","DH-002","18:14:10","1440","900","true","firefox","131.0.0","false","Mac OS","true","60.91","true","true","Browser_Check","","","","","","","","","","","",""
"","video-keyboard-response","393","22872856","0.0-393.0","58140","DH-002","18:15:21","","","","","","","","","","","","video33","","null","[""components/stim/StimVid_Undoing2.mp4""]","null","","","","","","","",""
"","image-slider-response-modified","394","22875643","0.0-394.0","58140","DH-002","18:15:24","","","","","","","","","","","","assessment 0","","2771","components/portraits/StimImgFernandoAlves.PNG","0","","","","","0","Fernando Alves","A",""
"","image-slider-response-modified","395","22875803","0.0-395.0","58140","DH-002","18:15:24","","","","","","","","","","","","assessment 1","","154","components/portraits/StimImgJonathanFraser.PNG","-5","","","","","-5","Jonathan Fraser","A",""
"","image-slider-response-modified","396","22875937","0.0-396.0","58140","DH-002","18:15:25","","","","","","","","","","","","assessment 2","","130","components/portraits/StimImgGraceFraser.PNG","-9","","","","","-9","Grace Fraser","A",""
"","image-slider-response-modified","397","22876096","0.0-397.0","58140","DH-002","18:15:25","","","","","","","","","","","","assessment 3","","157","components/portraits/StimImgFranklinReinhardt.PNG","7","","","","","7","Franklin Reinhardt","A",""
"","image-slider-response-modified","398","22876272","0.0-398.0","58140","DH-002","18:15:25","","","","","","","","","","","","assessment 4","","173","components/portraits/StimImgSylviaSteinetz.PNG","22","","","","","22","Sylvia Steinetz","A",""
"","image-slider-response-modified","399","22876423","0.0-399.0","58140","DH-002","18:15:25","","","","","","","","","","","","assessment 5","","148","components/portraits/StimImgElenaAlves.PNG","0","","","","","0","Elena Alves","A",""
"","image-slider-response-modified","400","22876584","0.0-400.0","58140","DH-002","18:15:25","","","","","","","","","","","","assessment 6","","156","components/portraits/StimImgMiguelAlves.PNG","50","","","","","50","Miguel Alves","A",""
"","image-slider-response-modified","401","22877047","0.0-401.0","58140","DH-002","18:15:26","","","","","","","","","","","","assessment 7","","458","components/portraits/StimImgHenryFraser.PNG","25","","","","","25","Henry Fraser","A",""
"","html-keyboard-response","402","22878052","0.0-402.0","58140","DH-002","18:15:27","","","","","","","","","","","","","","null","[""<p style=\""font-size: 36px; width: 1200px; line-height: 40px;\"">Returning to the video...""]","null","","","","","","","",""
"","video-keyboard-response","403","22878151","0.0-403.0","58140","DH-002","","","","","","","","","","","","","video 33","","null","[""components/stim/StimVid_Undoing2.mp4""]","null","","","","","","","",""
