"trial_id","trial_type","trial_index","time_elapsed","internal_node_id","subject_id","break_id","time","width","height","webaudio","browser","browser_version","mobile","os","fullscreen","vsync_rate","webcam","microphone","task","success","rt","stimulus","response","timeout","failed_images","failed_audio","failed_video","slider_start","character","label_condition","question_order"
"pavlovia_init","pavlovia","0","693","0.0-0.0","60719","DH-005","13:44:44","","","","","","","","","","","","","","","","","","","","","","","",""
"","browser-check","1","1705","0.0-1.0","60719","DH-005","13:44:45","1466","770","true","safari","17.4.0","false","Mac OS","true","60","true","true","Browser_Check","","","","","","","","","","","",""
"","fullscreen","2","19375","0.0-2.0","60719","DH-005","13:45:2","","","","","","","","","","","","Fullscreen","true","16667","","","","","","","","","",""
"","html-keyboard-response","3","31445","0.0-3.0","60719","DH-005","13:45:14","","","","","","","","","","","","Instruction","","12068","[""<p style=\""font-size: 36px; width: 1200px; line-height: 40px;\"">During this experiment, you will watch an episode of a publicly broadcasted murder mystery television show.<br><br>It contains adult themes and graphic language. While the video will portray a character accused of a violent crime, as well as verbal descriptions of the crime, <strong>violence will not be shown</strong>, nor will any other graphic visual content.<br><br><br>If you are not comfortable with continuing, please exit this experiment now.<br><br><br><br>Otherwise, please press the <strong>SPACE BAR</strong> to continue.</p>""]"," ","","","","","","","",""
"","preload","4","32185","0.0-4.0","60719","DH-005","13:45:15","","","","","","","","","","","","Preload","true","","","","false","[]","[]","[]","","","",""
"","image-button-response-modified","5","86930","0.0-5.0","60719","DH-005","13:46:10","","","","","","","","","","","","Consent","","54741","components/consent/SONA.png","0","","","","","","","",""
"","html-keyboard-response","6","88253","0.0-6.0","60719","DH-005","13:46:11","","","","","","","","","","","","Instr_Task","","1316","<p style=""font-size: 36px; width: 1200px; line-height: 40px;"">Thank you for agreeing to participate in this experiment! <br><br><br><br> Please press the <strong>SPACE BAR</strong> to continue</p>"," ","","","","","","","",""
"","html-keyboard-response","7","107639","0.0-7.0","60719","DH-005","13:46:30","","","","","","","","","","","","Instr_Task","","19384","<p style=""font-size: 36px; width: 1200px; line-height: 40px;"">Before we begin, please be sure that you are in a good space to complete the experiment. This space should be: <br><br><br><br> <strong>Comfortable <br><br> Distraction-free <br><br> Available for the next 60 minutes</strong> <br><br><br><br><br> Please press the <strong>SPACE BAR</strong> to continue</p>"," ","","","","","","","",""
"","html-keyboard-response","8","122819","0.0-8.0","60719","DH-005","13:46:46","","","","","","","","","","","","Instr_Task","","15178","<p style=""font-size: 36px; width: 1200px; line-height: 40px;""><strong>Please give your full attention to the experiment. This includes:</strong> <br><br><br><br> Closing or minimizing other programs on your computer <br><br> Silencing your phone or placing it somewhere it will not be distracting <br><br> Testing that your audio is working and set to a comfortable volume that you can clearly hear <br><br> Not completing this experiment with others present <br><br><br><br><br> Please press the <strong>SPACE BAR</strong> to continue</p>"," ","","","","","","","",""
"","html-keyboard-response","9","132976","0.0-9.0","60719","DH-005","13:46:56","","","","","","","","","","","","Instr_Task","","10156","<p style=""font-size: 36px; width: 1200px; line-height: 40px;"">You will watch 45 minutes of a crime mystery drama in which one character is suspected of having murdered another.<br><br><br>We will present background information about the characters of the show and the surrounding context before the episode begins.<br><br><br><br> Please press the <strong>SPACE BAR</strong> to continue</p>"," ","","","","","","","",""
"","html-keyboard-response","10","140935","0.0-10.0","60719","DH-005","13:47:4","","","","","","","","","","","","Instr_Task","","7957","<p style=""font-size: 36px; width: 1200px; line-height: 40px;"">The video will intermittently pause while you watch to assess how certain <strong>you</strong> are that different characters in the show are guilty or innocent of having committed the murder.<br><br><br><br> Please press the <strong>SPACE BAR</strong> to continue</p>"," ","","","","","","","",""
"","html-keyboard-response","11","159598","0.0-11.0","60719","DH-005","13:47:22","","","","","","","","","","","","Instr_Task","","18662","<p style=""font-size: 36px; width: 1200px; line-height: 40px;"">These certainty assessments tend to be flexible and may shift upon hearing something that a character says or seeing something that a character does or events that occur when a character is not on screen.<br><br><br>Some of this information may influence your assessments only slightly while other information may influence your assessments a great deal.<br><br><br>When prompted, please update your rating of how certain you are of each character's innocence or guilt at that moment in time. <br><br><br> Please try to be as precise as you can.<br><br><br><br> Please press the <strong>SPACE BAR</strong> to continue</p>"," ","","","","","","","",""
"","html-keyboard-response","12","164902","0.0-12.0","60719","DH-005","13:47:28","","","","","","","","","","","","Instr_Task","","5303","<p style=""font-size: 36px; width: 1200px; line-height: 40px;"">These certainty assessments will be assessed on a continuous scale. <br><br><br> The scale ranges from 100% certain that a character is guilty to 100% certain that a character is innocent.<br><br><br>Leaving the scale in the middle (i.e., 0% certain) would indicate that you are completely uncertain whether a character is innocent or guilt.<br><br><br><br> Please press the <strong>SPACE BAR</strong> to continue</p>"," ","","","","","","","",""
"","html-keyboard-response","13","176064","0.0-13.0","60719","DH-005","13:47:39","","","","","","","","","","","","Instr_Task","","11160","<p style=""font-size: 36px; width: 1200px; line-height: 40px;"">After your first rating, we will mark the scale where you had last rated that character to hopefully make updating your certainty rating easier. <br><br><br>A progress bar at the top will show the order in which you will assess the characters.<br><br><br>A portrait in the center of the screen will identify which character you are assessing at that moment.<br><br><br>Let's look at an example of what this looks like.<br><br><br><br> Please press the <strong>SPACE BAR</strong> to continue</p>"," ","","","","","","","",""
"","preload","14","178187","0.0-14.0","60719","DH-005","13:47:41","","","","","","","","","","","","Preload","true","","","","false","[]","[]","[]","","","",""
"","image-slider-response-modified","15","217381","0.0-15.0","60719","DH-005","13:48:20","","","","","","","","","","","","Practice","","39175","components/portraits/StimImgJonathanFraser.PNG","-50","","","","","0","Jonathan Fraser","B",""
"","html-keyboard-response","16","228355","0.0-17.0","60719","DH-005","13:48:31","","","","","","","","","","","","PracticeSuccess","","10973","[""<p style=\""font-size: 36px; width: 1200px; line-height: 40px;\"">Great! If you have any questions that you must have answered before continuing, please contact study staff via the recruitment platform.<br><br><br>If you are ready to start, we will present the background information.<br><br><br><br> Please press the <strong>SPACE BAR</strong> to continue</p>""]"," ","","","","","","","",""
"","image-keyboard-response-modified","17","240896","0.0-18.0","60719","DH-005","13:48:44","","","","","","","","","","","","Background","","12537","[""components/portraits/StimImgElenaAlves.PNG"",""components/portraits/StimImgJonathanFraser.PNG""]"," ","","","","","","","",""
"","image-keyboard-response-modified","18","251458","0.0-19.0","60719","DH-005","13:48:54","","","","","","","","","","","","Background","","10560","[""components/portraits/StimImgElenaAlves.PNG"",""components/portraits/StimImgJonathanFraser.PNG""]"," ","","","","","","","",""
"","image-keyboard-response-modified","19","259201","0.0-20.0","60719","DH-005","13:49:2","","","","","","","","","","","","Background","","7741","[""components/portraits/StimImgMiguelAlves.PNG"",""components/portraits/StimImgHenryFraser.PNG""]"," ","","","","","","","",""
"","image-keyboard-response-modified","20","336486","0.0-21.0","60719","DH-005","13:50:19","","","","","","","","","","","","Background","","77282","[""components/portraits/StimImgFernandoAlves.PNG"",""components/portraits/StimImgGraceFraser.PNG""]"," ","","","","","","","",""
"","image-keyboard-response-modified","21","422396","0.0-22.0","60719","DH-005","13:51:45","","","","","","","","","","","","Background","","85902","[""components/portraits/StimImgSylviaSteinetz.PNG"",""components/portraits/StimImgFranklinReinhardt.PNG""]"," ","","","","","","","",""
"","image-keyboard-response-modified","22","528607","0.0-23.0","60719","DH-005","13:53:31","","","","","","","","","","","","Background","","106209","[""components/portraits/StimImgRobertAdelman.PNG"",""components/portraits/StimImgHaleyFitzgerald.PNG""]"," ","","","","","","","",""
"","image-keyboard-response-modified","23","553576","0.0-24.0","60719","DH-005","13:53:56","","","","","","","","","","","","Background","","24967","[""components/portraits/StimImgJoeMendoza.PNG""]"," ","","","","","","","",""
"","html-keyboard-response","24","580885","0.0-25.0","60719","DH-005","13:54:24","","","","","","","","","","","","Instr_ExpStart","","27306","[""<p style=\""font-size: 36px; width: 1200px; line-height: 40px;\"">The experiment will now start! <br><br><br><br> Please press the <strong>SPACE BAR</strong> to continue</p>""]"," ","","","","","","","",""
"","preload","25","660499","0.0-26.0","60719","DH-005","13:55:43","","","","","","","","","","","","Preload","true","","","","false","[]","[]","[]","","","",""
"","browser-check","26","661521","0.0-27.0","60719","DH-005","13:55:44","1470","920","true","safari","17.4.0","false","Mac OS","true","59","true","true","Browser_Check","","","","","","","","","","","",""
"","video-keyboard-response","27","1999132","0.0-28.0","60719","DH-005","14:18:2","","","","","","","","","","","","video 0","","null","[""components/stim/StimVid_Undoing1.mp4""]","null","","","","","","","",""
"","image-slider-response-modified","28","2137236","0.0-29.0","60719","DH-005","14:20:20","","","","","","","","","","","","assessment 0","","138093","components/portraits/StimImgJonathanFraser.PNG","-40","","","","","0","Jonathan Fraser","B",""
"","image-slider-response-modified","29","2179038","0.0-30.0","60719","DH-005","14:21:2","","","","","","","","","","","","assessment 1","","41798","components/portraits/StimImgSylviaSteinetz.PNG","-100","","","","","0","Sylvia Steinetz","B",""
"","image-slider-response-modified","30","2192190","0.0-31.0","60719","DH-005","14:21:15","","","","","","","","","","","","assessment 2","","13150","components/portraits/StimImgElenaAlves.PNG","0","","","","","0","Elena Alves","B",""
"","image-slider-response-modified","31","2201897","0.0-32.0","60719","DH-005","14:21:25","","","","","","","","","","","","assessment 3","","9704","components/portraits/StimImgGraceFraser.PNG","50","","","","","0","Grace Fraser","B",""
"","image-slider-response-modified","32","2205807","0.0-33.0","60719","DH-005","14:21:29","","","","","","","","","","","","assessment 4","","3908","components/portraits/StimImgHenryFraser.PNG","-100","","","","","0","Henry Fraser","B",""
"","image-slider-response-modified","33","2210359","0.0-34.0","60719","DH-005","14:21:33","","","","","","","","","","","","assessment 5","","4547","components/portraits/StimImgMiguelAlves.PNG","-100","","","","","0","Miguel Alves","B",""
"","image-slider-response-modified","34","2217759","0.0-35.0","60719","DH-005","14:21:41","","","","","","","","","","","","assessment 6","","7398","components/portraits/StimImgFranklinReinhardt.PNG","25","","","","","0","Franklin Reinhardt","B",""
"","image-slider-response-modified","35","2224112","0.0-36.0","60719","DH-005","14:21:47","","","","","","","","","","","","assessment 7","","6350","components/portraits/StimImgFernandoAlves.PNG","-100","","","","","0","Fernando Alves","B",""
"","html-keyboard-response","36","2225114","0.0-37.0","60719","DH-005","14:21:48","","","","","","","","","","","","","","null","[""<p style=\""font-size: 36px; width: 1200px; line-height: 40px;\"">Returning to the video...""]","null","","","","","","","",""
"","browser-check","37","2226129","0.0-38.0","60719","DH-005","14:21:49","1470","920","true","safari","17.4.0","false","Mac OS","true","59.58","true","true","Browser_Check","","","","","","","","","","","",""
"","video-keyboard-response","38","2325864","0.0-39.0","60719","DH-005","14:23:29","","","","","","","","","","","","video 1","","null","[""components/stim/StimVid_Undoing1.mp4""]","null","","","","","","","",""
"","image-slider-response-modified","39","2357555","0.0-40.0","60719","DH-005","14:24:0","","","","","","","","","","","","assessment 0","","31685","components/portraits/StimImgJonathanFraser.PNG","-40","","","","","-40","Jonathan Fraser","B",""
"","image-slider-response-modified","40","2364406","0.0-41.0","60719","DH-005","14:24:7","","","","","","","","","","","","assessment 1","","6847","components/portraits/StimImgSylviaSteinetz.PNG","-75","","","","","-100","Sylvia Steinetz","B",""
"","image-slider-response-modified","41","2367693","0.0-42.0","60719","DH-005","14:24:11","","","","","","","","","","","","assessment 2","","3285","components/portraits/StimImgElenaAlves.PNG","0","","","","","0","Elena Alves","B",""
"","image-slider-response-modified","42","2373462","0.0-43.0","60719","DH-005","14:24:16","","","","","","","","","","","","assessment 3","","5769","components/portraits/StimImgGraceFraser.PNG","60","","","","","50","Grace Fraser","B",""
"","image-slider-response-modified","43","2375541","0.0-44.0","60719","DH-005","14:24:18","","","","","","","","","","","","assessment 4","","2077","components/portraits/StimImgHenryFraser.PNG","-100","","","","","-100","Henry Fraser","B",""
"","image-slider-response-modified","44","2382179","0.0-45.0","60719","DH-005","14:24:25","","","","","","","","","","","","assessment 5","","6636","components/portraits/StimImgMiguelAlves.PNG","-100","","","","","-100","Miguel Alves","B",""
"","image-slider-response-modified","45","2383787","0.0-46.0","60719","DH-005","14:24:27","","","","","","","","","","","","assessment 6","","1606","components/portraits/StimImgFranklinReinhardt.PNG","25","","","","","25","Franklin Reinhardt","B",""
"","image-slider-response-modified","46","2384728","0.0-47.0","60719","DH-005","14:24:28","","","","","","","","","","","","assessment 7","","939","components/portraits/StimImgFernandoAlves.PNG","-100","","","","","-100","Fernando Alves","B",""
"","html-keyboard-response","47","2385730","0.0-48.0","60719","DH-005","14:24:29","","","","","","","","","","","","","","null","[""<p style=\""font-size: 36px; width: 1200px; line-height: 40px;\"">Returning to the video...""]","null","","","","","","","",""
"","browser-check","48","2386727","0.0-49.0","60719","DH-005","14:24:30","1470","920","true","safari","17.4.0","false","Mac OS","true","60.42","true","true","Browser_Check","","","","","","","","","","","",""
"","video-keyboard-response","49","2470399","0.0-50.0","60719","DH-005","14:25:53","","","","","","","","","","","","video 2","","null","[""components/stim/StimVid_Undoing1.mp4""]","null","","","","","","","",""
"","image-slider-response-modified","50","2485328","0.0-51.0","60719","DH-005","14:26:8","","","","","","","","","","","","assessment 0","","14926","components/portraits/StimImgJonathanFraser.PNG","-40","","","","","-40","Jonathan Fraser","B",""
"","image-slider-response-modified","51","2486763","0.0-52.0","60719","DH-005","14:26:10","","","","","","","","","","","","assessment 1","","1433","components/portraits/StimImgSylviaSteinetz.PNG","-75","","","","","-75","Sylvia Steinetz","B",""
"","image-slider-response-modified","52","2487331","0.0-53.0","60719","DH-005","14:26:10","","","","","","","","","","","","assessment 2","","568","components/portraits/StimImgElenaAlves.PNG","0","","","","","0","Elena Alves","B",""
"","image-slider-response-modified","53","2495652","0.0-54.0","60719","DH-005","14:26:19","","","","","","","","","","","","assessment 3","","8318","components/portraits/StimImgGraceFraser.PNG","75","","","","","60","Grace Fraser","B",""
"","image-slider-response-modified","54","2496698","0.0-55.0","60719","DH-005","14:26:20","","","","","","","","","","","","assessment 4","","1044","components/portraits/StimImgHenryFraser.PNG","-100","","","","","-100","Henry Fraser","B",""
"","image-slider-response-modified","55","2532860","0.0-56.0","60719","DH-005","14:26:56","","","","","","","","","","","","assessment 5","","36160","components/portraits/StimImgMiguelAlves.PNG","-100","","","","","-100","Miguel Alves","B",""
"","image-slider-response-modified","56","2541421","0.0-57.0","60719","DH-005","14:27:4","","","","","","","","","","","","assessment 6","","8559","components/portraits/StimImgFranklinReinhardt.PNG","50","","","","","25","Franklin Reinhardt","B",""
"","image-slider-response-modified","57","2542340","0.0-58.0","60719","DH-005","14:27:5","","","","","","","","","","","","assessment 7","","918","components/portraits/StimImgFernandoAlves.PNG","-100","","","","","-100","Fernando Alves","B",""
"","html-keyboard-response","58","2543343","0.0-59.0","60719","DH-005","14:27:6","","","","","","","","","","","","","","null","[""<p style=\""font-size: 36px; width: 1200px; line-height: 40px;\"">Returning to the video...""]","null","","","","","","","",""
"","browser-check","59","2544343","0.0-60.0","60719","DH-005","14:27:7","1470","920","true","safari","17.4.0","false","Mac OS","true","60.24","true","true","Browser_Check","","","","","","","","","","","",""
"","video-keyboard-response","60","2640055","0.0-61.0","60719","DH-005","14:28:43","","","","","","","","","","","","video 3","","null","[""components/stim/StimVid_Undoing1.mp4""]","null","","","","","","","",""
"","image-slider-response-modified","61","2657064","0.0-62.0","60719","DH-005","14:29:0","","","","","","","","","","","","assessment 0","","17004","components/portraits/StimImgJonathanFraser.PNG","-51","","","","","-40","Jonathan Fraser","B",""
"","image-slider-response-modified","62","2667169","0.0-63.0","60719","DH-005","14:29:10","","","","","","","","","","","","assessment 1","","10104","components/portraits/StimImgSylviaSteinetz.PNG","-50","","","","","-75","Sylvia Steinetz","B",""
"","image-slider-response-modified","63","2690467","0.0-64.0","60719","DH-005","14:29:33","","","","","","","","","","","","assessment 2","","23297","components/portraits/StimImgElenaAlves.PNG","0","","","","","0","Elena Alves","B",""
"","image-slider-response-modified","64","2694067","0.0-65.0","60719","DH-005","14:29:37","","","","","","","","","","","","assessment 3","","3598","components/portraits/StimImgGraceFraser.PNG","75","","","","","75","Grace Fraser","B",""
"","image-slider-response-modified","65","2694861","0.0-66.0","60719","DH-005","14:29:38","","","","","","","","","","","","assessment 4","","793","components/portraits/StimImgHenryFraser.PNG","-100","","","","","-100","Henry Fraser","B",""
"","image-slider-response-modified","66","2695631","0.0-67.0","60719","DH-005","14:29:38","","","","","","","","","","","","assessment 5","","769","components/portraits/StimImgMiguelAlves.PNG","-100","","","","","-100","Miguel Alves","B",""
"","image-slider-response-modified","67","2696557","0.0-68.0","60719","DH-005","14:29:39","","","","","","","","","","","","assessment 6","","925","components/portraits/StimImgFranklinReinhardt.PNG","50","","","","","50","Franklin Reinhardt","B",""
"","image-slider-response-modified","68","2704298","0.0-69.0","60719","DH-005","14:29:47","","","","","","","","","","","","assessment 7","","7740","components/portraits/StimImgFernandoAlves.PNG","-100","","","","","-100","Fernando Alves","B",""
"","html-keyboard-response","69","2705300","0.0-70.0","60719","DH-005","14:29:48","","","","","","","","","","","","","","null","[""<p style=\""font-size: 36px; width: 1200px; line-height: 40px;\"">Returning to the video...""]","null","","","","","","","",""
"","browser-check","70","2706309","0.0-71.0","60719","DH-005","14:29:49","1470","920","true","safari","17.4.0","false","Mac OS","true","59.76","true","true","Browser_Check","","","","","","","","","","","",""
"","video-keyboard-response","71","2775929","0.0-72.0","60719","DH-005","14:30:59","","","","","","","","","","","","video 4","","null","[""components/stim/StimVid_Undoing1.mp4""]","null","","","","","","","",""
"","image-slider-response-modified","72","2791509","0.0-73.0","60719","DH-005","14:31:14","","","","","","","","","","","","assessment 0","","15572","components/portraits/StimImgJonathanFraser.PNG","-51","","","","","-51","Jonathan Fraser","B",""
"","image-slider-response-modified","73","2792453","0.0-74.0","60719","DH-005","14:31:15","","","","","","","","","","","","assessment 1","","943","components/portraits/StimImgSylviaSteinetz.PNG","-50","","","","","-50","Sylvia Steinetz","B",""
"","image-slider-response-modified","74","2792840","0.0-75.0","60719","DH-005","14:31:16","","","","","","","","","","","","assessment 2","","386","components/portraits/StimImgElenaAlves.PNG","0","","","","","0","Elena Alves","B",""
"","image-slider-response-modified","75","2793200","0.0-76.0","60719","DH-005","14:31:16","","","","","","","","","","","","assessment 3","","359","components/portraits/StimImgGraceFraser.PNG","75","","","","","75","Grace Fraser","B",""
"","image-slider-response-modified","76","2793566","0.0-77.0","60719","DH-005","14:31:16","","","","","","","","","","","","assessment 4","","365","components/portraits/StimImgHenryFraser.PNG","-100","","","","","-100","Henry Fraser","B",""
"","image-slider-response-modified","77","2793915","0.0-78.0","60719","DH-005","14:31:17","","","","","","","","","","","","assessment 5","","348","components/portraits/StimImgMiguelAlves.PNG","-100","","","","","-100","Miguel Alves","B",""
"","image-slider-response-modified","78","2794274","0.0-79.0","60719","DH-005","14:31:17","","","","","","","","","","","","assessment 6","","357","components/portraits/StimImgFranklinReinhardt.PNG","50","","","","","50","Franklin Reinhardt","B",""
"","image-slider-response-modified","79","2794597","0.0-80.0","60719","DH-005","14:31:17","","","","","","","","","","","","assessment 7","","321","components/portraits/StimImgFernandoAlves.PNG","-100","","","","","-100","Fernando Alves","B",""
"","html-keyboard-response","80","2795599","0.0-81.0","60719","DH-005","14:31:18","","","","","","","","","","","","","","null","[""<p style=\""font-size: 36px; width: 1200px; line-height: 40px;\"">Returning to the video...""]","null","","","","","","","",""
"","browser-check","81","2796612","0.0-82.0","60719","DH-005","14:31:19","1470","920","true","safari","17.4.0","false","Mac OS","true","59.64","true","true","Browser_Check","","","","","","","","","","","",""
"","video-keyboard-response","82","2876531","0.0-83.0","60719","DH-005","14:32:39","","","","","","","","","","","","video 5","","null","[""components/stim/StimVid_Undoing1.mp4""]","null","","","","","","","",""
"","image-slider-response-modified","83","2915680","0.0-84.0","60719","DH-005","14:33:19","","","","","","","","","","","","assessment 0","","39144","components/portraits/StimImgJonathanFraser.PNG","-25","","","","","-51","Jonathan Fraser","B",""
"","image-slider-response-modified","84","2922879","0.0-85.0","60719","DH-005","14:33:26","","","","","","","","","","","","assessment 1","","7197","components/portraits/StimImgSylviaSteinetz.PNG","-50","","","","","-50","Sylvia Steinetz","B",""
"","image-slider-response-modified","85","2923867","0.0-86.0","60719","DH-005","14:33:27","","","","","","","","","","","","assessment 2","","987","components/portraits/StimImgElenaAlves.PNG","0","","","","","0","Elena Alves","B",""
"","image-slider-response-modified","86","2933904","0.0-87.0","60719","DH-005","14:33:37","","","","","","","","","","","","assessment 3","","10035","components/portraits/StimImgGraceFraser.PNG","59","","","","","75","Grace Fraser","B",""
"","image-slider-response-modified","87","2934838","0.0-88.0","60719","DH-005","14:33:38","","","","","","","","","","","","assessment 4","","933","components/portraits/StimImgHenryFraser.PNG","-100","","","","","-100","Henry Fraser","B",""
"","image-slider-response-modified","88","2935079","0.0-89.0","60719","DH-005","14:33:38","","","","","","","","","","","","assessment 5","","240","components/portraits/StimImgMiguelAlves.PNG","-100","","","","","-100","Miguel Alves","B",""
"","image-slider-response-modified","89","2935218","0.0-90.0","60719","DH-005","14:33:38","","","","","","","","","","","","assessment 6","","137","components/portraits/StimImgFranklinReinhardt.PNG","50","","","","","50","Franklin Reinhardt","B",""
"","image-slider-response-modified","90","2936012","0.0-91.0","60719","DH-005","14:33:39","","","","","","","","","","","","assessment 7","","793","components/portraits/StimImgFernandoAlves.PNG","-100","","","","","-100","Fernando Alves","B",""
"","html-keyboard-response","91","2937013","0.0-92.0","60719","DH-005","14:33:40","","","","","","","","","","","","","","null","[""<p style=\""font-size: 36px; width: 1200px; line-height: 40px;\"">Returning to the video...""]","null","","","","","","","",""
"","browser-check","92","2938013","0.0-93.0","60719","DH-005","14:33:41","1470","920","true","safari","17.4.0","false","Mac OS","true","60.36","true","true","Browser_Check","","","","","","","","","","","",""
"","video-keyboard-response","93","3009641","0.0-94.0","60719","DH-005","14:34:52","","","","","","","","","","","","video 6","","null","[""components/stim/StimVid_Undoing1.mp4""]","null","","","","","","","",""
"","image-slider-response-modified","94","3011903","0.0-95.0","60719","DH-005","14:34:55","","","","","","","","","","","","assessment 0","","2260","components/portraits/StimImgJonathanFraser.PNG","-25","","","","","-25","Jonathan Fraser","B",""
"","image-slider-response-modified","95","3013112","0.0-96.0","60719","DH-005","14:34:56","","","","","","","","","","","","assessment 1","","1207","components/portraits/StimImgSylviaSteinetz.PNG","-50","","","","","-50","Sylvia Steinetz","B",""
"","image-slider-response-modified","96","3014137","0.0-97.0","60719","DH-005","14:34:57","","","","","","","","","","","","assessment 2","","1024","components/portraits/StimImgElenaAlves.PNG","0","","","","","0","Elena Alves","B",""
"","image-slider-response-modified","97","3017371","0.0-98.0","60719","DH-005","14:35:0","","","","","","","","","","","","assessment 3","","3233","components/portraits/StimImgGraceFraser.PNG","100","","","","","59","Grace Fraser","B",""
"","image-slider-response-modified","98","3018126","0.0-99.0","60719","DH-005","14:35:1","","","","","","","","","","","","assessment 4","","753","components/portraits/StimImgHenryFraser.PNG","-100","","","","","-100","Henry Fraser","B",""
"","image-slider-response-modified","99","3018427","0.0-100.0","60719","DH-005","14:35:1","","","","","","","","","","","","assessment 5","","300","components/portraits/StimImgMiguelAlves.PNG","-100","","","","","-100","Miguel Alves","B",""
"","image-slider-response-modified","100","3018646","0.0-101.0","60719","DH-005","14:35:2","","","","","","","","","","","","assessment 6","","217","components/portraits/StimImgFranklinReinhardt.PNG","50","","","","","50","Franklin Reinhardt","B",""
"","image-slider-response-modified","101","3019076","0.0-102.0","60719","DH-005","14:35:2","","","","","","","","","","","","assessment 7","","428","components/portraits/StimImgFernandoAlves.PNG","-100","","","","","-100","Fernando Alves","B",""
"","html-keyboard-response","102","3020078","0.0-103.0","60719","DH-005","14:35:3","","","","","","","","","","","","","","null","[""<p style=\""font-size: 36px; width: 1200px; line-height: 40px;\"">Returning to the video...""]","null","","","","","","","",""
"","browser-check","103","3021079","0.0-104.0","60719","DH-005","14:35:4","1470","920","true","safari","17.4.0","false","Mac OS","true","60.18","true","true","Browser_Check","","","","","","","","","","","",""
"","video-keyboard-response","104","3128584","0.0-105.0","60719","DH-005","14:36:51","","","","","","","","","","","","video 7","","null","[""components/stim/StimVid_Undoing1.mp4""]","null","","","","","","","",""
"","image-slider-response-modified","105","3130759","0.0-106.0","60719","DH-005","14:36:54","","","","","","","","","","","","assessment 0","","2173","components/portraits/StimImgJonathanFraser.PNG","-25","","","","","-25","Jonathan Fraser","B",""
"","image-slider-response-modified","106","3130895","0.0-107.0","60719","DH-005","14:36:54","","","","","","","","","","","","assessment 1","","134","components/portraits/StimImgSylviaSteinetz.PNG","-50","","","","","-50","Sylvia Steinetz","B",""
"","image-slider-response-modified","107","3131009","0.0-108.0","60719","DH-005","14:36:54","","","","","","","","","","","","assessment 2","","112","components/portraits/StimImgElenaAlves.PNG","0","","","","","0","Elena Alves","B",""
"","image-slider-response-modified","108","3131138","0.0-109.0","60719","DH-005","14:36:54","","","","","","","","","","","","assessment 3","","128","components/portraits/StimImgGraceFraser.PNG","100","","","","","100","Grace Fraser","B",""
"","image-slider-response-modified","109","3131261","0.0-110.0","60719","DH-005","14:36:54","","","","","","","","","","","","assessment 4","","122","components/portraits/StimImgHenryFraser.PNG","-100","","","","","-100","Henry Fraser","B",""
"","image-slider-response-modified","110","3131381","0.0-111.0","60719","DH-005","14:36:54","","","","","","","","","","","","assessment 5","","119","components/portraits/StimImgMiguelAlves.PNG","-100","","","","","-100","Miguel Alves","B",""
"","image-slider-response-modified","111","3131594","0.0-112.0","60719","DH-005","14:36:54","","","","","","","","","","","","assessment 6","","211","components/portraits/StimImgFranklinReinhardt.PNG","50","","","","","50","Franklin Reinhardt","B",""
"","image-slider-response-modified","112","3132008","0.0-113.0","60719","DH-005","14:36:55","","","","","","","","","","","","assessment 7","","412","components/portraits/StimImgFernandoAlves.PNG","-100","","","","","-100","Fernando Alves","B",""
"","html-keyboard-response","113","3133011","0.0-114.0","60719","DH-005","14:36:56","","","","","","","","","","","","","","null","[""<p style=\""font-size: 36px; width: 1200px; line-height: 40px;\"">Returning to the video...""]","null","","","","","","","",""
"","browser-check","114","3134012","0.0-115.0","60719","DH-005","14:36:57","1470","920","true","safari","17.4.0","false","Mac OS","true","60.18","true","true","Browser_Check","","","","","","","","","","","",""
"","video-keyboard-response","115","3205623","0.0-116.0","60719","DH-005","14:38:8","","","","","","","","","","","","video 8","","null","[""components/stim/StimVid_Undoing1.mp4""]","null","","","","","","","",""
"","image-slider-response-modified","116","3207755","0.0-117.0","60719","DH-005","14:38:11","","","","","","","","","","","","assessment 0","","2128","components/portraits/StimImgJonathanFraser.PNG","-25","","","","","-25","Jonathan Fraser","B",""
"","image-slider-response-modified","117","3208233","0.0-118.0","60719","DH-005","14:38:11","","","","","","","","","","","","assessment 1","","477","components/portraits/StimImgSylviaSteinetz.PNG","-50","","","","","-50","Sylvia Steinetz","B",""
"","image-slider-response-modified","118","3208672","0.0-119.0","60719","DH-005","14:38:12","","","","","","","","","","","","assessment 2","","437","components/portraits/StimImgElenaAlves.PNG","0","","","","","0","Elena Alves","B",""
"","image-slider-response-modified","119","3209749","0.0-120.0","60719","DH-005","14:38:13","","","","","","","","","","","","assessment 3","","1075","components/portraits/StimImgGraceFraser.PNG","100","","","","","100","Grace Fraser","B",""
"","image-slider-response-modified","120","3210778","0.0-121.0","60719","DH-005","14:38:14","","","","","","","","","","","","assessment 4","","1027","components/portraits/StimImgHenryFraser.PNG","-100","","","","","-100","Henry Fraser","B",""
"","image-slider-response-modified","121","3212279","0.0-122.0","60719","DH-005","14:38:15","","","","","","","","","","","","assessment 5","","1500","components/portraits/StimImgMiguelAlves.PNG","-100","","","","","-100","Miguel Alves","B",""
"","image-slider-response-modified","122","3219223","0.0-123.0","60719","DH-005","14:38:22","","","","","","","","","","","","assessment 6","","6943","components/portraits/StimImgFranklinReinhardt.PNG","75","","","","","50","Franklin Reinhardt","B",""
"","image-slider-response-modified","123","3219953","0.0-124.0","60719","DH-005","14:38:23","","","","","","","","","","","","assessment 7","","729","components/portraits/StimImgFernandoAlves.PNG","-100","","","","","-100","Fernando Alves","B",""
"","html-keyboard-response","124","3220955","0.0-125.0","60719","DH-005","14:38:24","","","","","","","","","","","","","","null","[""<p style=\""font-size: 36px; width: 1200px; line-height: 40px;\"">Returning to the video...""]","null","","","","","","","",""
"","browser-check","125","3221961","0.0-126.0","60719","DH-005","14:38:25","1470","920","true","safari","17.4.0","false","Mac OS","true","59.88","true","true","Browser_Check","","","","","","","","","","","",""
"","video-keyboard-response","126","3299619","0.0-127.0","60719","DH-005","14:39:42","","","","","","","","","","","","video 9","","null","[""components/stim/StimVid_Undoing1.mp4""]","null","","","","","","","",""
"","image-slider-response-modified","127","3319957","0.0-128.0","60719","DH-005","14:40:3","","","","","","","","","","","","assessment 0","","20335","components/portraits/StimImgJonathanFraser.PNG","0","","","","","-25","Jonathan Fraser","B",""
"","image-slider-response-modified","128","3320436","0.0-129.0","60719","DH-005","14:40:3","","","","","","","","","","","","assessment 1","","479","components/portraits/StimImgSylviaSteinetz.PNG","-50","","","","","-50","Sylvia Steinetz","B",""
"","image-slider-response-modified","129","3320922","0.0-130.0","60719","DH-005","14:40:4","","","","","","","","","","","","assessment 2","","484","components/portraits/StimImgElenaAlves.PNG","0","","","","","0","Elena Alves","B",""
"","image-slider-response-modified","130","3322050","0.0-131.0","60719","DH-005","14:40:5","","","","","","","","","","","","assessment 3","","1125","components/portraits/StimImgGraceFraser.PNG","100","","","","","100","Grace Fraser","B",""
"","image-slider-response-modified","131","3322585","0.0-132.0","60719","DH-005","14:40:5","","","","","","","","","","","","assessment 4","","533","components/portraits/StimImgHenryFraser.PNG","-100","","","","","-100","Henry Fraser","B",""
"","image-slider-response-modified","132","3322983","0.0-133.0","60719","DH-005","14:40:6","","","","","","","","","","","","assessment 5","","396","components/portraits/StimImgMiguelAlves.PNG","-100","","","","","-100","Miguel Alves","B",""
"","image-slider-response-modified","133","3323460","0.0-134.0","60719","DH-005","14:40:6","","","","","","","","","","","","assessment 6","","474","components/portraits/StimImgFranklinReinhardt.PNG","75","","","","","75","Franklin Reinhardt","B",""
"","image-slider-response-modified","134","3324003","0.0-135.0","60719","DH-005","14:40:7","","","","","","","","","","","","assessment 7","","542","components/portraits/StimImgFernandoAlves.PNG","-100","","","","","-100","Fernando Alves","B",""
"","html-keyboard-response","135","3325006","0.0-136.0","60719","DH-005","14:40:8","","","","","","","","","","","","","","null","[""<p style=\""font-size: 36px; width: 1200px; line-height: 40px;\"">Returning to the video...""]","null","","","","","","","",""
"","browser-check","136","3326011","0.0-137.0","60719","DH-005","14:40:9","1470","920","true","safari","17.4.0","false","Mac OS","true","60","true","true","Browser_Check","","","","","","","","","","","",""
"","video-keyboard-response","137","3397637","0.0-138.0","60719","DH-005","14:41:20","","","","","","","","","","","","video 10","","null","[""components/stim/StimVid_Undoing1.mp4""]","null","","","","","","","",""
"","image-slider-response-modified","138","3400604","0.0-139.0","60719","DH-005","14:41:23","","","","","","","","","","","","assessment 0","","2966","components/portraits/StimImgJonathanFraser.PNG","0","","","","","0","Jonathan Fraser","B",""
"","image-slider-response-modified","139","3400811","0.0-140.0","60719","DH-005","14:41:24","","","","","","","","","","","","assessment 1","","205","components/portraits/StimImgSylviaSteinetz.PNG","-50","","","","","-50","Sylvia Steinetz","B",""
"","image-slider-response-modified","140","3401554","0.0-141.0","60719","DH-005","14:41:24","","","","","","","","","","","","assessment 2","","742","components/portraits/StimImgElenaAlves.PNG","0","","","","","0","Elena Alves","B",""
"","image-slider-response-modified","141","3401961","0.0-142.0","60719","DH-005","14:41:25","","","","","","","","","","","","assessment 3","","405","components/portraits/StimImgGraceFraser.PNG","100","","","","","100","Grace Fraser","B",""
"","image-slider-response-modified","142","3402349","0.0-143.0","60719","DH-005","14:41:25","","","","","","","","","","","","assessment 4","","386","components/portraits/StimImgHenryFraser.PNG","-100","","","","","-100","Henry Fraser","B",""
"","image-slider-response-modified","143","3403563","0.0-144.0","60719","DH-005","14:41:26","","","","","","","","","","","","assessment 5","","1213","components/portraits/StimImgMiguelAlves.PNG","-100","","","","","-100","Miguel Alves","B",""
"","image-slider-response-modified","144","3403978","0.0-145.0","60719","DH-005","14:41:27","","","","","","","","","","","","assessment 6","","413","components/portraits/StimImgFranklinReinhardt.PNG","75","","","","","75","Franklin Reinhardt","B",""
"","image-slider-response-modified","145","3404393","0.0-146.0","60719","DH-005","14:41:27","","","","","","","","","","","","assessment 7","","413","components/portraits/StimImgFernandoAlves.PNG","-100","","","","","-100","Fernando Alves","B",""
"","html-keyboard-response","146","3405395","0.0-147.0","60719","DH-005","14:41:28","","","","","","","","","","","","","","null","[""<p style=\""font-size: 36px; width: 1200px; line-height: 40px;\"">Returning to the video...""]","null","","","","","","","",""
"","browser-check","147","3406394","0.0-148.0","60719","DH-005","14:41:29","1470","920","true","safari","17.4.0","false","Mac OS","true","60.24","true","true","Browser_Check","","","","","","","","","","","",""
"","video-keyboard-response","148","3488054","0.0-149.0","60719","DH-005","14:42:51","","","","","","","","","","","","video 11","","null","[""components/stim/StimVid_Undoing1.mp4""]","null","","","","","","","",""
"","image-slider-response-modified","149","3502813","0.0-150.0","60719","DH-005","14:43:6","","","","","","","","","","","","assessment 0","","14755","components/portraits/StimImgJonathanFraser.PNG","0","","","","","0","Jonathan Fraser","B",""
"","image-slider-response-modified","150","3503325","0.0-151.0","60719","DH-005","14:43:6","","","","","","","","","","","","assessment 1","","511","components/portraits/StimImgSylviaSteinetz.PNG","-50","","","","","-50","Sylvia Steinetz","B",""
"","image-slider-response-modified","151","3503618","0.0-152.0","60719","DH-005","14:43:6","","","","","","","","","","","","assessment 2","","293","components/portraits/StimImgElenaAlves.PNG","0","","","","","0","Elena Alves","B",""
"","image-slider-response-modified","152","3504217","0.0-153.0","60719","DH-005","14:43:7","","","","","","","","","","","","assessment 3","","596","components/portraits/StimImgGraceFraser.PNG","100","","","","","100","Grace Fraser","B",""
"","image-slider-response-modified","153","3504753","0.0-154.0","60719","DH-005","14:43:8","","","","","","","","","","","","assessment 4","","534","components/portraits/StimImgHenryFraser.PNG","-100","","","","","-100","Henry Fraser","B",""
"","image-slider-response-modified","154","3505428","0.0-155.0","60719","DH-005","14:43:8","","","","","","","","","","","","assessment 5","","674","components/portraits/StimImgMiguelAlves.PNG","-100","","","","","-100","Miguel Alves","B",""
"","image-slider-response-modified","155","3510061","0.0-156.0","60719","DH-005","14:43:13","","","","","","","","","","","","assessment 6","","4631","components/portraits/StimImgFranklinReinhardt.PNG","78","","","","","75","Franklin Reinhardt","B",""
"","image-slider-response-modified","156","3510596","0.0-157.0","60719","DH-005","14:43:13","","","","","","","","","","","","assessment 7","","535","components/portraits/StimImgFernandoAlves.PNG","-100","","","","","-100","Fernando Alves","B",""
"","html-keyboard-response","157","3511598","0.0-158.0","60719","DH-005","14:43:14","","","","","","","","","","","","","","null","[""<p style=\""font-size: 36px; width: 1200px; line-height: 40px;\"">Returning to the video...""]","null","","","","","","","",""
"","browser-check","158","3512594","0.0-159.0","60719","DH-005","14:43:15","1470","920","true","safari","17.4.0","false","Mac OS","true","60.54","true","true","Browser_Check","","","","","","","","","","","",""
"","video-keyboard-response","159","3580200","0.0-160.0","60719","DH-005","14:44:23","","","","","","","","","","","","video 12","","null","[""components/stim/StimVid_Undoing1.mp4""]","null","","","","","","","",""
"","image-slider-response-modified","160","3583420","0.0-161.0","60719","DH-005","14:44:26","","","","","","","","","","","","assessment 0","","3216","components/portraits/StimImgJonathanFraser.PNG","0","","","","","0","Jonathan Fraser","B",""
"","image-slider-response-modified","161","3583938","0.0-162.0","60719","DH-005","14:44:27","","","","","","","","","","","","assessment 1","","516","components/portraits/StimImgSylviaSteinetz.PNG","-50","","","","","-50","Sylvia Steinetz","B",""
"","image-slider-response-modified","162","3584417","0.0-163.0","60719","DH-005","14:44:27","","","","","","","","","","","","assessment 2","","478","components/portraits/StimImgElenaAlves.PNG","0","","","","","0","Elena Alves","B",""
"","image-slider-response-modified","163","3586358","0.0-164.0","60719","DH-005","14:44:29","","","","","","","","","","","","assessment 3","","1939","components/portraits/StimImgGraceFraser.PNG","100","","","","","100","Grace Fraser","B",""
"","image-slider-response-modified","164","3591396","0.0-165.0","60719","DH-005","14:44:34","","","","","","","","","","","","assessment 4","","5036","components/portraits/StimImgHenryFraser.PNG","-100","","","","","-100","Henry Fraser","B",""
"","image-slider-response-modified","165","3599129","0.0-166.0","60719","DH-005","14:44:42","","","","","","","","","","","","assessment 5","","7731","components/portraits/StimImgMiguelAlves.PNG","-100","","","","","-100","Miguel Alves","B",""
"","image-slider-response-modified","166","3600975","0.0-167.0","60719","DH-005","14:44:44","","","","","","","","","","","","assessment 6","","1844","components/portraits/StimImgFranklinReinhardt.PNG","78","","","","","78","Franklin Reinhardt","B",""
"","image-slider-response-modified","167","3602187","0.0-168.0","60719","DH-005","14:44:45","","","","","","","","","","","","assessment 7","","1210","components/portraits/StimImgFernandoAlves.PNG","-100","","","","","-100","Fernando Alves","B",""
"","html-keyboard-response","168","3603190","0.0-169.0","60719","DH-005","14:44:46","","","","","","","","","","","","","","null","[""<p style=\""font-size: 36px; width: 1200px; line-height: 40px;\"">Returning to the video...""]","null","","","","","","","",""
"","browser-check","169","3604193","0.0-170.0","60719","DH-005","14:44:47","1470","920","true","safari","17.4.0","false","Mac OS","true","60.12","true","true","Browser_Check","","","","","","","","","","","",""
"","video-keyboard-response","170","3687866","0.0-171.0","60719","DH-005","14:46:11","","","","","","","","","","","","video 13","","null","[""components/stim/StimVid_Undoing1.mp4""]","null","","","","","","","",""
"","image-slider-response-modified","171","3700501","0.0-172.0","60719","DH-005","14:46:23","","","","","","","","","","","","assessment 0","","12630","components/portraits/StimImgJonathanFraser.PNG","-25","","","","","0","Jonathan Fraser","B",""
"","image-slider-response-modified","172","3701037","0.0-173.0","60719","DH-005","14:46:24","","","","","","","","","","","","assessment 1","","535","components/portraits/StimImgSylviaSteinetz.PNG","-50","","","","","-50","Sylvia Steinetz","B",""
"","image-slider-response-modified","173","3701492","0.0-174.0","60719","DH-005","14:46:24","","","","","","","","","","","","assessment 2","","454","components/portraits/StimImgElenaAlves.PNG","0","","","","","0","Elena Alves","B",""
"","image-slider-response-modified","174","3701930","0.0-175.0","60719","DH-005","14:46:25","","","","","","","","","","","","assessment 3","","436","components/portraits/StimImgGraceFraser.PNG","100","","","","","100","Grace Fraser","B",""
"","image-slider-response-modified","175","3702499","0.0-176.0","60719","DH-005","14:46:25","","","","","","","","","","","","assessment 4","","567","components/portraits/StimImgHenryFraser.PNG","-100","","","","","-100","Henry Fraser","B",""
"","image-slider-response-modified","176","3702814","0.0-177.0","60719","DH-005","14:46:26","","","","","","","","","","","","assessment 5","","314","components/portraits/StimImgMiguelAlves.PNG","-100","","","","","-100","Miguel Alves","B",""
"","image-slider-response-modified","177","3702994","0.0-178.0","60719","DH-005","14:46:26","","","","","","","","","","","","assessment 6","","178","components/portraits/StimImgFranklinReinhardt.PNG","78","","","","","78","Franklin Reinhardt","B",""
"","image-slider-response-modified","178","3703649","0.0-179.0","60719","DH-005","14:46:27","","","","","","","","","","","","assessment 7","","653","components/portraits/StimImgFernandoAlves.PNG","-100","","","","","-100","Fernando Alves","B",""
"","html-keyboard-response","179","3704651","0.0-180.0","60719","DH-005","14:46:28","","","","","","","","","","","","","","null","[""<p style=\""font-size: 36px; width: 1200px; line-height: 40px;\"">Returning to the video...""]","null","","","","","","","",""
"","browser-check","180","3705659","0.0-181.0","60719","DH-005","14:46:29","1470","920","true","safari","17.4.0","false","Mac OS","true","59.7","true","true","Browser_Check","","","","","","","","","","","",""
"","video-keyboard-response","181","3807394","0.0-182.0","60719","DH-005","14:48:10","","","","","","","","","","","","video 14","","null","[""components/stim/StimVid_Undoing1.mp4""]","null","","","","","","","",""
"","image-slider-response-modified","182","3811926","0.0-183.0","60719","DH-005","14:48:15","","","","","","","","","","","","assessment 0","","4529","components/portraits/StimImgJonathanFraser.PNG","-25","","","","","-25","Jonathan Fraser","B",""
"","image-slider-response-modified","183","3812721","0.0-184.0","60719","DH-005","14:48:16","","","","","","","","","","","","assessment 1","","793","components/portraits/StimImgSylviaSteinetz.PNG","-50","","","","","-50","Sylvia Steinetz","B",""
"","image-slider-response-modified","184","3813802","0.0-185.0","60719","DH-005","14:48:17","","","","","","","","","","","","assessment 2","","1079","components/portraits/StimImgElenaAlves.PNG","0","","","","","0","Elena Alves","B",""
"","image-slider-response-modified","185","3814328","0.0-186.0","60719","DH-005","14:48:17","","","","","","","","","","","","assessment 3","","524","components/portraits/StimImgGraceFraser.PNG","100","","","","","100","Grace Fraser","B",""
"","image-slider-response-modified","186","3814775","0.0-187.0","60719","DH-005","14:48:18","","","","","","","","","","","","assessment 4","","446","components/portraits/StimImgHenryFraser.PNG","-100","","","","","-100","Henry Fraser","B",""
"","image-slider-response-modified","187","3815079","0.0-188.0","60719","DH-005","14:48:18","","","","","","","","","","","","assessment 5","","301","components/portraits/StimImgMiguelAlves.PNG","-100","","","","","-100","Miguel Alves","B",""
"","image-slider-response-modified","188","3815509","0.0-189.0","60719","DH-005","14:48:18","","","","","","","","","","","","assessment 6","","429","components/portraits/StimImgFranklinReinhardt.PNG","78","","","","","78","Franklin Reinhardt","B",""
"","image-slider-response-modified","189","3816133","0.0-190.0","60719","DH-005","14:48:19","","","","","","","","","","","","assessment 7","","622","components/portraits/StimImgFernandoAlves.PNG","-100","","","","","-100","Fernando Alves","B",""
"","html-keyboard-response","190","3817135","0.0-191.0","60719","DH-005","14:48:20","","","","","","","","","","","","","","null","[""<p style=\""font-size: 36px; width: 1200px; line-height: 40px;\"">Returning to the video...""]","null","","","","","","","",""
"","browser-check","191","3818143","0.0-192.0","60719","DH-005","14:48:21","1470","920","true","safari","17.4.0","false","Mac OS","true","59.88","true","true","Browser_Check","","","","","","","","","","","",""
"","video-keyboard-response","192","3895796","0.0-193.0","60719","DH-005","14:49:39","","","","","","","","","","","","video 15","","null","[""components/stim/StimVid_Undoing1.mp4""]","null","","","","","","","",""
"","image-slider-response-modified","193","3898451","0.0-194.0","60719","DH-005","14:49:41","","","","","","","","","","","","assessment 0","","2650","components/portraits/StimImgJonathanFraser.PNG","-25","","","","","-25","Jonathan Fraser","B",""
"","image-slider-response-modified","194","3898734","0.0-195.0","60719","DH-005","14:49:42","","","","","","","","","","","","assessment 1","","281","components/portraits/StimImgSylviaSteinetz.PNG","-50","","","","","-50","Sylvia Steinetz","B",""
"","image-slider-response-modified","195","3899035","0.0-196.0","60719","DH-005","14:49:42","","","","","","","","","","","","assessment 2","","300","components/portraits/StimImgElenaAlves.PNG","0","","","","","0","Elena Alves","B",""
"","image-slider-response-modified","196","3899415","0.0-197.0","60719","DH-005","14:49:42","","","","","","","","","","","","assessment 3","","378","components/portraits/StimImgGraceFraser.PNG","100","","","","","100","Grace Fraser","B",""
"","image-slider-response-modified","197","3900210","0.0-198.0","60719","DH-005","14:49:43","","","","","","","","","","","","assessment 4","","795","components/portraits/StimImgHenryFraser.PNG","-100","","","","","-100","Henry Fraser","B",""
"","image-slider-response-modified","198","3900485","0.0-199.0","60719","DH-005","14:49:43","","","","","","","","","","","","assessment 5","","274","components/portraits/StimImgMiguelAlves.PNG","-100","","","","","-100","Miguel Alves","B",""
"","image-slider-response-modified","199","3900744","0.0-200.0","60719","DH-005","14:49:44","","","","","","","","","","","","assessment 6","","257","components/portraits/StimImgFranklinReinhardt.PNG","78","","","","","78","Franklin Reinhardt","B",""
"","image-slider-response-modified","200","3900980","0.0-201.0","60719","DH-005","14:49:44","","","","","","","","","","","","assessment 7","","233","components/portraits/StimImgFernandoAlves.PNG","-100","","","","","-100","Fernando Alves","B",""
"","html-keyboard-response","201","3901982","0.0-202.0","60719","DH-005","14:49:45","","","","","","","","","","","","","","null","[""<p style=\""font-size: 36px; width: 1200px; line-height: 40px;\"">Returning to the video...""]","null","","","","","","","",""
"","browser-check","202","3902975","0.0-203.0","60719","DH-005","14:49:46","1470","920","true","safari","17.4.0","false","Mac OS","true","60.73","true","true","Browser_Check","","","","","","","","","","","",""
"","video-keyboard-response","203","3988644","0.0-204.0","60719","DH-005","14:51:12","","","","","","","","","","","","video 16","","null","[""components/stim/StimVid_Undoing1.mp4""]","null","","","","","","","",""
"","image-slider-response-modified","204","3993207","0.0-205.0","60719","DH-005","14:51:16","","","","","","","","","","","","assessment 0","","4561","components/portraits/StimImgJonathanFraser.PNG","-25","","","","","-25","Jonathan Fraser","B",""
"","image-slider-response-modified","205","3993859","0.0-206.0","60719","DH-005","14:51:17","","","","","","","","","","","","assessment 1","","650","components/portraits/StimImgSylviaSteinetz.PNG","-50","","","","","-50","Sylvia Steinetz","B",""
"","image-slider-response-modified","206","3995312","0.0-207.0","60719","DH-005","14:51:18","","","","","","","","","","","","assessment 2","","1451","components/portraits/StimImgElenaAlves.PNG","0","","","","","0","Elena Alves","B",""
"","image-slider-response-modified","207","3996165","0.0-208.0","60719","DH-005","14:51:19","","","","","","","","","","","","assessment 3","","851","components/portraits/StimImgGraceFraser.PNG","100","","","","","100","Grace Fraser","B",""
"","image-slider-response-modified","208","4012726","0.0-209.0","60719","DH-005","14:51:36","","","","","","","","","","","","assessment 4","","16560","components/portraits/StimImgHenryFraser.PNG","-80","","","","","-100","Henry Fraser","B",""
"","image-slider-response-modified","209","4014428","0.0-210.0","60719","DH-005","14:51:37","","","","","","","","","","","","assessment 5","","1701","components/portraits/StimImgMiguelAlves.PNG","-100","","","","","-100","Miguel Alves","B",""
"","image-slider-response-modified","210","4014722","0.0-211.0","60719","DH-005","14:51:38","","","","","","","","","","","","assessment 6","","293","components/portraits/StimImgFranklinReinhardt.PNG","78","","","","","78","Franklin Reinhardt","B",""
"","image-slider-response-modified","211","4015170","0.0-212.0","60719","DH-005","14:51:38","","","","","","","","","","","","assessment 7","","446","components/portraits/StimImgFernandoAlves.PNG","-100","","","","","-100","Fernando Alves","B",""
"","html-keyboard-response","212","4016172","0.0-213.0","60719","DH-005","14:51:39","","","","","","","","","","","","","","null","[""<p style=\""font-size: 36px; width: 1200px; line-height: 40px;\"">Returning to the video...""]","null","","","","","","","",""
"","browser-check","213","4017175","0.0-214.0","60719","DH-005","14:51:40","1470","920","true","safari","17.4.0","false","Mac OS","true","60.12","true","true","Browser_Check","","","","","","","","","","","",""
"","preload","214","4101454","0.0-215.0","60719","DH-005","14:53:4","","","","","","","","","","","","Preload","true","","","","false","[]","[]","[]","","","",""
"","video-keyboard-response","215","4132259","0.0-216.0","60719","DH-005","","","","","","","","","","","","","video 17","","null","[""components/stim/StimVid_Undoing1.mp4""]","null","","","","","","","",""
"","video-keyboard-response","216","4199616","0.0-217.0","60719","DH-005","","","","","","","","","","","","","video 18","","null","[""components/stim/StimVid_Undoing2.mp4""]","null","","","","","","","",""
"","image-slider-response-modified","217","4202752","0.0-218.0","60719","DH-005","14:54:46","","","","","","","","","","","","assessment 0","","3132","components/portraits/StimImgJonathanFraser.PNG","-25","","","","","-25","Jonathan Fraser","B",""
"","image-slider-response-modified","218","4203125","0.0-219.0","60719","DH-005","14:54:46","","","","","","","","","","","","assessment 1","","369","components/portraits/StimImgSylviaSteinetz.PNG","-50","","","","","-50","Sylvia Steinetz","B",""
"","image-slider-response-modified","219","4203799","0.0-220.0","60719","DH-005","14:54:47","","","","","","","","","","","","assessment 2","","672","components/portraits/StimImgElenaAlves.PNG","0","","","","","0","Elena Alves","B",""
"","image-slider-response-modified","220","4204092","0.0-221.0","60719","DH-005","14:54:47","","","","","","","","","","","","assessment 3","","290","components/portraits/StimImgGraceFraser.PNG","100","","","","","100","Grace Fraser","B",""
"","image-slider-response-modified","221","4204441","0.0-222.0","60719","DH-005","14:54:47","","","","","","","","","","","","assessment 4","","347","components/portraits/StimImgHenryFraser.PNG","-80","","","","","-80","Henry Fraser","B",""
"","image-slider-response-modified","222","4204805","0.0-223.0","60719","DH-005","14:54:48","","","","","","","","","","","","assessment 5","","362","components/portraits/StimImgMiguelAlves.PNG","-100","","","","","-100","Miguel Alves","B",""
"","image-slider-response-modified","223","4205105","0.0-224.0","60719","DH-005","14:54:48","","","","","","","","","","","","assessment 6","","298","components/portraits/StimImgFranklinReinhardt.PNG","78","","","","","78","Franklin Reinhardt","B",""
"","image-slider-response-modified","224","4205822","0.0-225.0","60719","DH-005","14:54:49","","","","","","","","","","","","assessment 7","","713","components/portraits/StimImgFernandoAlves.PNG","-100","","","","","-100","Fernando Alves","B",""
"","html-keyboard-response","225","4206824","0.0-226.0","60719","DH-005","14:54:50","","","","","","","","","","","","","","null","[""<p style=\""font-size: 36px; width: 1200px; line-height: 40px;\"">Returning to the video...""]","null","","","","","","","",""
"","browser-check","226","4207824","0.0-227.0","60719","DH-005","14:54:51","1470","920","true","safari","17.4.0","false","Mac OS","true","60.3","true","true","Browser_Check","","","","","","","","","","","",""
"","video-keyboard-response","227","4289465","0.0-228.0","60719","DH-005","14:56:12","","","","","","","","","","","","video18","","null","[""components/stim/StimVid_Undoing2.mp4""]","null","","","","","","","",""
"","image-slider-response-modified","228","4291048","0.0-229.0","60719","DH-005","14:56:14","","","","","","","","","","","","assessment 0","","1578","components/portraits/StimImgJonathanFraser.PNG","-25","","","","","-25","Jonathan Fraser","B",""
"","image-slider-response-modified","229","4295433","0.0-230.0","60719","DH-005","14:56:18","","","","","","","","","","","","assessment 1","","4383","components/portraits/StimImgSylviaSteinetz.PNG","-56","","","","","-50","Sylvia Steinetz","B",""
"","image-slider-response-modified","230","4296351","0.0-231.0","60719","DH-005","14:56:19","","","","","","","","","","","","assessment 2","","916","components/portraits/StimImgElenaAlves.PNG","0","","","","","0","Elena Alves","B",""
"","image-slider-response-modified","231","4296959","0.0-232.0","60719","DH-005","14:56:20","","","","","","","","","","","","assessment 3","","605","components/portraits/StimImgGraceFraser.PNG","100","","","","","100","Grace Fraser","B",""
"","image-slider-response-modified","232","4297656","0.0-233.0","60719","DH-005","14:56:21","","","","","","","","","","","","assessment 4","","695","components/portraits/StimImgHenryFraser.PNG","-80","","","","","-80","Henry Fraser","B",""
"","image-slider-response-modified","233","4298233","0.0-234.0","60719","DH-005","14:56:21","","","","","","","","","","","","assessment 5","","576","components/portraits/StimImgMiguelAlves.PNG","-100","","","","","-100","Miguel Alves","B",""
"","image-slider-response-modified","234","4298824","0.0-235.0","60719","DH-005","14:56:22","","","","","","","","","","","","assessment 6","","590","components/portraits/StimImgFranklinReinhardt.PNG","78","","","","","78","Franklin Reinhardt","B",""
"","image-slider-response-modified","235","4310183","0.0-236.0","60719","DH-005","14:56:33","","","","","","","","","","","","assessment 7","","11356","components/portraits/StimImgFernandoAlves.PNG","-75","","","","","-100","Fernando Alves","B",""
"","html-keyboard-response","236","4311185","0.0-237.0","60719","DH-005","14:56:34","","","","","","","","","","","","","","null","[""<p style=\""font-size: 36px; width: 1200px; line-height: 40px;\"">Returning to the video...""]","null","","","","","","","",""
"","browser-check","237","4312190","0.0-238.0","60719","DH-005","14:56:35","1470","920","true","safari","17.4.0","false","Mac OS","true","60.06","true","true","Browser_Check","","","","","","","","","","","",""
"","video-keyboard-response","238","4421940","0.0-239.0","60719","DH-005","14:58:25","","","","","","","","","","","","video19","","null","[""components/stim/StimVid_Undoing2.mp4""]","null","","","","","","","",""
"","image-slider-response-modified","239","4427031","0.0-240.0","60719","DH-005","14:58:30","","","","","","","","","","","","assessment 0","","5088","components/portraits/StimImgJonathanFraser.PNG","-25","","","","","-25","Jonathan Fraser","B",""
"","image-slider-response-modified","240","4427341","0.0-241.0","60719","DH-005","14:58:30","","","","","","","","","","","","assessment 1","","308","components/portraits/StimImgSylviaSteinetz.PNG","-56","","","","","-56","Sylvia Steinetz","B",""
"","image-slider-response-modified","241","4427624","0.0-242.0","60719","DH-005","14:58:30","","","","","","","","","","","","assessment 2","","283","components/portraits/StimImgElenaAlves.PNG","0","","","","","0","Elena Alves","B",""
"","image-slider-response-modified","242","4427949","0.0-243.0","60719","DH-005","14:58:31","","","","","","","","","","","","assessment 3","","323","components/portraits/StimImgGraceFraser.PNG","100","","","","","100","Grace Fraser","B",""
"","image-slider-response-modified","243","4428273","0.0-244.0","60719","DH-005","14:58:31","","","","","","","","","","","","assessment 4","","323","components/portraits/StimImgHenryFraser.PNG","-80","","","","","-80","Henry Fraser","B",""
"","image-slider-response-modified","244","4428575","0.0-245.0","60719","DH-005","14:58:31","","","","","","","","","","","","assessment 5","","302","components/portraits/StimImgMiguelAlves.PNG","-100","","","","","-100","Miguel Alves","B",""
"","image-slider-response-modified","245","4428889","0.0-246.0","60719","DH-005","14:58:32","","","","","","","","","","","","assessment 6","","312","components/portraits/StimImgFranklinReinhardt.PNG","78","","","","","78","Franklin Reinhardt","B",""
"","image-slider-response-modified","246","4429205","0.0-247.0","60719","DH-005","14:58:32","","","","","","","","","","","","assessment 7","","315","components/portraits/StimImgFernandoAlves.PNG","-75","","","","","-75","Fernando Alves","B",""
"","html-keyboard-response","247","4430207","0.0-248.0","60719","DH-005","14:58:33","","","","","","","","","","","","","","null","[""<p style=\""font-size: 36px; width: 1200px; line-height: 40px;\"">Returning to the video...""]","null","","","","","","","",""
"","browser-check","248","4431206","0.0-249.0","60719","DH-005","14:58:34","1470","920","true","safari","17.4.0","false","Mac OS","true","60.3","true","true","Browser_Check","","","","","","","","","","","",""
"","video-keyboard-response","249","4500817","0.0-250.0","60719","DH-005","14:59:44","","","","","","","","","","","","video20","","null","[""components/stim/StimVid_Undoing2.mp4""]","null","","","","","","","",""
"","image-slider-response-modified","250","4517828","0.0-251.0","60719","DH-005","15:0:1","","","","","","","","","","","","assessment 0","","17007","components/portraits/StimImgJonathanFraser.PNG","-36","","","","","-25","Jonathan Fraser","B",""
"","image-slider-response-modified","251","4518281","0.0-252.0","60719","DH-005","15:0:1","","","","","","","","","","","","assessment 1","","452","components/portraits/StimImgSylviaSteinetz.PNG","-56","","","","","-56","Sylvia Steinetz","B",""
"","image-slider-response-modified","252","4518980","0.0-253.0","60719","DH-005","15:0:2","","","","","","","","","","","","assessment 2","","697","components/portraits/StimImgElenaAlves.PNG","0","","","","","0","Elena Alves","B",""
"","image-slider-response-modified","253","4519142","0.0-254.0","60719","DH-005","15:0:2","","","","","","","","","","","","assessment 3","","158","components/portraits/StimImgGraceFraser.PNG","100","","","","","100","Grace Fraser","B",""
"","image-slider-response-modified","254","4519288","0.0-255.0","60719","DH-005","15:0:2","","","","","","","","","","","","assessment 4","","144","components/portraits/StimImgHenryFraser.PNG","-80","","","","","-80","Henry Fraser","B",""
"","image-slider-response-modified","255","4519580","0.0-256.0","60719","DH-005","15:0:2","","","","","","","","","","","","assessment 5","","290","components/portraits/StimImgMiguelAlves.PNG","-100","","","","","-100","Miguel Alves","B",""
"","image-slider-response-modified","256","4519726","0.0-257.0","60719","DH-005","15:0:3","","","","","","","","","","","","assessment 6","","144","components/portraits/StimImgFranklinReinhardt.PNG","78","","","","","78","Franklin Reinhardt","B",""
"","image-slider-response-modified","257","4519889","0.0-258.0","60719","DH-005","15:0:3","","","","","","","","","","","","assessment 7","","162","components/portraits/StimImgFernandoAlves.PNG","-75","","","","","-75","Fernando Alves","B",""
"","html-keyboard-response","258","4520898","0.0-259.0","60719","DH-005","15:0:4","","","","","","","","","","","","","","null","[""<p style=\""font-size: 36px; width: 1200px; line-height: 40px;\"">Returning to the video...""]","null","","","","","","","",""
"","browser-check","259","4521905","0.0-260.0","60719","DH-005","15:0:5","1470","920","true","safari","17.4.0","false","Mac OS","true","59.82","true","true","Browser_Check","","","","","","","","","","","",""
"","video-keyboard-response","260","4619621","0.0-261.0","60719","DH-005","15:1:42","","","","","","","","","","","","video21","","null","[""components/stim/StimVid_Undoing2.mp4""]","null","","","","","","","",""
"","image-slider-response-modified","261","4623995","0.0-262.0","60719","DH-005","15:1:47","","","","","","","","","","","","assessment 0","","4371","components/portraits/StimImgJonathanFraser.PNG","-36","","","","","-36","Jonathan Fraser","B",""
"","image-slider-response-modified","262","4624149","0.0-263.0","60719","DH-005","15:1:47","","","","","","","","","","","","assessment 1","","153","components/portraits/StimImgSylviaSteinetz.PNG","-56","","","","","-56","Sylvia Steinetz","B",""
"","image-slider-response-modified","263","4624409","0.0-264.0","60719","DH-005","15:1:47","","","","","","","","","","","","assessment 2","","259","components/portraits/StimImgElenaAlves.PNG","0","","","","","0","Elena Alves","B",""
"","image-slider-response-modified","264","4625002","0.0-265.0","60719","DH-005","15:1:48","","","","","","","","","","","","assessment 3","","592","components/portraits/StimImgGraceFraser.PNG","100","","","","","100","Grace Fraser","B",""
"","image-slider-response-modified","265","4625617","0.0-266.0","60719","DH-005","15:1:48","","","","","","","","","","","","assessment 4","","614","components/portraits/StimImgHenryFraser.PNG","-80","","","","","-80","Henry Fraser","B",""
"","image-slider-response-modified","266","4626328","0.0-267.0","60719","DH-005","15:1:49","","","","","","","","","","","","assessment 5","","710","components/portraits/StimImgMiguelAlves.PNG","-100","","","","","-100","Miguel Alves","B",""
"","image-slider-response-modified","267","4632945","0.0-268.0","60719","DH-005","15:1:56","","","","","","","","","","","","assessment 6","","6616","components/portraits/StimImgFranklinReinhardt.PNG","75","","","","","78","Franklin Reinhardt","B",""
"","image-slider-response-modified","268","4633393","0.0-269.0","60719","DH-005","15:1:56","","","","","","","","","","","","assessment 7","","447","components/portraits/StimImgFernandoAlves.PNG","-75","","","","","-75","Fernando Alves","B",""
"","html-keyboard-response","269","4634396","0.0-270.0","60719","DH-005","15:1:57","","","","","","","","","","","","","","null","[""<p style=\""font-size: 36px; width: 1200px; line-height: 40px;\"">Returning to the video...""]","null","","","","","","","",""
"","browser-check","270","4635405","0.0-271.0","60719","DH-005","15:1:58","1470","920","true","safari","17.4.0","false","Mac OS","true","59.64","true","true","Browser_Check","","","","","","","","","","","",""
"","video-keyboard-response","271","4707031","0.0-272.0","60719","DH-005","15:3:10","","","","","","","","","","","","video22","","null","[""components/stim/StimVid_Undoing2.mp4""]","null","","","","","","","",""
"","image-slider-response-modified","272","4728827","0.0-273.0","60719","DH-005","15:3:32","","","","","","","","","","","","assessment 0","","21793","components/portraits/StimImgJonathanFraser.PNG","-36","","","","","-36","Jonathan Fraser","B",""
"","image-slider-response-modified","273","4744044","0.0-274.0","60719","DH-005","15:3:47","","","","","","","","","","","","assessment 1","","15216","components/portraits/StimImgSylviaSteinetz.PNG","-50","","","","","-56","Sylvia Steinetz","B",""
"","image-slider-response-modified","274","4744904","0.0-275.0","60719","DH-005","15:3:48","","","","","","","","","","","","assessment 2","","859","components/portraits/StimImgElenaAlves.PNG","0","","","","","0","Elena Alves","B",""
"","image-slider-response-modified","275","4745854","0.0-276.0","60719","DH-005","15:3:49","","","","","","","","","","","","assessment 3","","947","components/portraits/StimImgGraceFraser.PNG","100","","","","","100","Grace Fraser","B",""
"","image-slider-response-modified","276","4750225","0.0-277.0","60719","DH-005","15:3:53","","","","","","","","","","","","assessment 4","","4368","components/portraits/StimImgHenryFraser.PNG","-80","","","","","-80","Henry Fraser","B",""
"","image-slider-response-modified","277","4751246","0.0-278.0","60719","DH-005","15:3:54","","","","","","","","","","","","assessment 5","","1019","components/portraits/StimImgMiguelAlves.PNG","-100","","","","","-100","Miguel Alves","B",""
"","image-slider-response-modified","278","4768854","0.0-279.0","60719","DH-005","15:4:12","","","","","","","","","","","","assessment 6","","17606","components/portraits/StimImgFranklinReinhardt.PNG","100","","","","","75","Franklin Reinhardt","B",""
"","image-slider-response-modified","279","4769324","0.0-280.0","60719","DH-005","15:4:12","","","","","","","","","","","","assessment 7","","468","components/portraits/StimImgFernandoAlves.PNG","-75","","","","","-75","Fernando Alves","B",""
"","html-keyboard-response","280","4770327","0.0-281.0","60719","DH-005","15:4:13","","","","","","","","","","","","","","null","[""<p style=\""font-size: 36px; width: 1200px; line-height: 40px;\"">Returning to the video...""]","null","","","","","","","",""
"","browser-check","281","4771322","0.0-282.0","60719","DH-005","15:4:14","1470","920","true","safari","17.4.0","false","Mac OS","true","60.61","true","true","Browser_Check","","","","","","","","","","","",""
"","video-keyboard-response","282","4867029","0.0-283.0","60719","DH-005","15:5:50","","","","","","","","","","","","video23","","null","[""components/stim/StimVid_Undoing2.mp4""]","null","","","","","","","",""
"","image-slider-response-modified","283","4897034","0.0-284.0","60719","DH-005","15:6:20","","","","","","","","","","","","assessment 0","","30000","components/portraits/StimImgJonathanFraser.PNG","-50","","","","","-36","Jonathan Fraser","B",""
"","image-slider-response-modified","284","4898854","0.0-285.0","60719","DH-005","15:6:22","","","","","","","","","","","","assessment 1","","1818","components/portraits/StimImgSylviaSteinetz.PNG","-50","","","","","-50","Sylvia Steinetz","B",""
"","image-slider-response-modified","285","4899673","0.0-286.0","60719","DH-005","15:6:23","","","","","","","","","","","","assessment 2","","818","components/portraits/StimImgElenaAlves.PNG","0","","","","","0","Elena Alves","B",""
"","image-slider-response-modified","286","4901833","0.0-287.0","60719","DH-005","15:6:25","","","","","","","","","","","","assessment 3","","2158","components/portraits/StimImgGraceFraser.PNG","100","","","","","100","Grace Fraser","B",""
"","image-slider-response-modified","287","4902345","0.0-288.0","60719","DH-005","15:6:25","","","","","","","","","","","","assessment 4","","511","components/portraits/StimImgHenryFraser.PNG","-80","","","","","-80","Henry Fraser","B",""
"","image-slider-response-modified","288","4902937","0.0-289.0","60719","DH-005","15:6:26","","","","","","","","","","","","assessment 5","","590","components/portraits/StimImgMiguelAlves.PNG","-100","","","","","-100","Miguel Alves","B",""
"","image-slider-response-modified","289","4903407","0.0-290.0","60719","DH-005","15:6:26","","","","","","","","","","","","assessment 6","","469","components/portraits/StimImgFranklinReinhardt.PNG","100","","","","","100","Franklin Reinhardt","B",""
"","image-slider-response-modified","290","4903878","0.0-291.0","60719","DH-005","15:6:27","","","","","","","","","","","","assessment 7","","468","components/portraits/StimImgFernandoAlves.PNG","-75","","","","","-75","Fernando Alves","B",""
"","html-keyboard-response","291","4904880","0.0-292.0","60719","DH-005","15:6:28","","","","","","","","","","","","","","null","[""<p style=\""font-size: 36px; width: 1200px; line-height: 40px;\"">Returning to the video...""]","null","","","","","","","",""
"","browser-check","292","4905871","0.0-293.0","60719","DH-005","15:6:29","1470","920","true","safari","17.4.0","false","Mac OS","true","60.79","true","true","Browser_Check","","","","","","","","","","","",""
"","video-keyboard-response","293","4987517","0.0-294.0","60719","DH-005","15:7:50","","","","","","","","","","","","video24","","null","[""components/stim/StimVid_Undoing2.mp4""]","null","","","","","","","",""
"","image-slider-response-modified","294","4992156","0.0-295.0","60719","DH-005","15:7:55","","","","","","","","","","","","assessment 0","","4638","components/portraits/StimImgJonathanFraser.PNG","-50","","","","","-50","Jonathan Fraser","B",""
"","image-slider-response-modified","295","4992400","0.0-296.0","60719","DH-005","15:7:55","","","","","","","","","","","","assessment 1","","243","components/portraits/StimImgSylviaSteinetz.PNG","-50","","","","","-50","Sylvia Steinetz","B",""
"","image-slider-response-modified","296","4992586","0.0-297.0","60719","DH-005","15:7:55","","","","","","","","","","","","assessment 2","","185","components/portraits/StimImgElenaAlves.PNG","0","","","","","0","Elena Alves","B",""
"","image-slider-response-modified","297","4992756","0.0-298.0","60719","DH-005","15:7:56","","","","","","","","","","","","assessment 3","","167","components/portraits/StimImgGraceFraser.PNG","100","","","","","100","Grace Fraser","B",""
"","image-slider-response-modified","298","4993227","0.0-299.0","60719","DH-005","15:7:56","","","","","","","","","","","","assessment 4","","469","components/portraits/StimImgHenryFraser.PNG","-80","","","","","-80","Henry Fraser","B",""
"","image-slider-response-modified","299","4993633","0.0-300.0","60719","DH-005","15:7:56","","","","","","","","","","","","assessment 5","","404","components/portraits/StimImgMiguelAlves.PNG","-100","","","","","-100","Miguel Alves","B",""
"","image-slider-response-modified","300","4993828","0.0-301.0","60719","DH-005","15:7:57","","","","","","","","","","","","assessment 6","","193","components/portraits/StimImgFranklinReinhardt.PNG","100","","","","","100","Franklin Reinhardt","B",""
"","image-slider-response-modified","301","4993982","0.0-302.0","60719","DH-005","15:7:57","","","","","","","","","","","","assessment 7","","151","components/portraits/StimImgFernandoAlves.PNG","-75","","","","","-75","Fernando Alves","B",""
"","html-keyboard-response","302","4994984","0.0-303.0","60719","DH-005","15:7:58","","","","","","","","","","","","","","null","[""<p style=\""font-size: 36px; width: 1200px; line-height: 40px;\"">Returning to the video...""]","null","","","","","","","",""
"","browser-check","303","4995987","0.0-304.0","60719","DH-005","15:7:59","1470","920","true","safari","17.4.0","false","Mac OS","true","60.12","true","true","Browser_Check","","","","","","","","","","","",""
"","video-keyboard-response","304","5063574","0.0-305.0","60719","DH-005","15:9:6","","","","","","","","","","","","video25","","null","[""components/stim/StimVid_Undoing2.mp4""]","null","","","","","","","",""
"","image-slider-response-modified","305","5080672","0.0-306.0","60719","DH-005","15:9:24","","","","","","","","","","","","assessment 0","","17095","components/portraits/StimImgJonathanFraser.PNG","-36","","","","","-50","Jonathan Fraser","B",""
"","image-slider-response-modified","306","5081956","0.0-307.0","60719","DH-005","15:9:25","","","","","","","","","","","","assessment 1","","1283","components/portraits/StimImgSylviaSteinetz.PNG","-50","","","","","-50","Sylvia Steinetz","B",""
"","image-slider-response-modified","307","5082417","0.0-308.0","60719","DH-005","15:9:25","","","","","","","","","","","","assessment 2","","460","components/portraits/StimImgElenaAlves.PNG","0","","","","","0","Elena Alves","B",""
"","image-slider-response-modified","308","5083529","0.0-309.0","60719","DH-005","15:9:26","","","","","","","","","","","","assessment 3","","1111","components/portraits/StimImgGraceFraser.PNG","100","","","","","100","Grace Fraser","B",""
"","image-slider-response-modified","309","5083889","0.0-310.0","60719","DH-005","15:9:27","","","","","","","","","","","","assessment 4","","359","components/portraits/StimImgHenryFraser.PNG","-80","","","","","-80","Henry Fraser","B",""
"","image-slider-response-modified","310","5085778","0.0-311.0","60719","DH-005","15:9:29","","","","","","","","","","","","assessment 5","","1886","components/portraits/StimImgMiguelAlves.PNG","-100","","","","","-100","Miguel Alves","B",""
"","image-slider-response-modified","311","5086874","0.0-312.0","60719","DH-005","15:9:30","","","","","","","","","","","","assessment 6","","1095","components/portraits/StimImgFranklinReinhardt.PNG","100","","","","","100","Franklin Reinhardt","B",""
"","image-slider-response-modified","312","5095984","0.0-313.0","60719","DH-005","15:9:39","","","","","","","","","","","","assessment 7","","9109","components/portraits/StimImgFernandoAlves.PNG","-50","","","","","-75","Fernando Alves","B",""
"","html-keyboard-response","313","5096986","0.0-314.0","60719","DH-005","15:9:40","","","","","","","","","","","","","","null","[""<p style=\""font-size: 36px; width: 1200px; line-height: 40px;\"">Returning to the video...""]","null","","","","","","","",""
"","browser-check","314","5097987","0.0-315.0","60719","DH-005","15:9:41","1470","920","true","safari","17.4.0","false","Mac OS","true","60.12","true","true","Browser_Check","","","","","","","","","","","",""
"","video-keyboard-response","315","5175612","0.0-316.0","60719","DH-005","15:10:58","","","","","","","","","","","","video26","","null","[""components/stim/StimVid_Undoing2.mp4""]","null","","","","","","","",""
"","image-slider-response-modified","316","5183129","0.0-317.0","60719","DH-005","15:11:6","","","","","","","","","","","","assessment 0","","7515","components/portraits/StimImgJonathanFraser.PNG","-36","","","","","-36","Jonathan Fraser","B",""
"","image-slider-response-modified","317","5184168","0.0-318.0","60719","DH-005","15:11:7","","","","","","","","","","","","assessment 1","","1037","components/portraits/StimImgSylviaSteinetz.PNG","-50","","","","","-50","Sylvia Steinetz","B",""
"","image-slider-response-modified","318","5185038","0.0-319.0","60719","DH-005","15:11:8","","","","","","","","","","","","assessment 2","","869","components/portraits/StimImgElenaAlves.PNG","0","","","","","0","Elena Alves","B",""
"","image-slider-response-modified","319","5186134","0.0-320.0","60719","DH-005","15:11:9","","","","","","","","","","","","assessment 3","","1093","components/portraits/StimImgGraceFraser.PNG","100","","","","","100","Grace Fraser","B",""
"","image-slider-response-modified","320","5187205","0.0-321.0","60719","DH-005","15:11:10","","","","","","","","","","","","assessment 4","","1069","components/portraits/StimImgHenryFraser.PNG","-80","","","","","-80","Henry Fraser","B",""
"","image-slider-response-modified","321","5187855","0.0-322.0","60719","DH-005","15:11:11","","","","","","","","","","","","assessment 5","","648","components/portraits/StimImgMiguelAlves.PNG","-100","","","","","-100","Miguel Alves","B",""
"","image-slider-response-modified","322","5188527","0.0-323.0","60719","DH-005","15:11:11","","","","","","","","","","","","assessment 6","","671","components/portraits/StimImgFranklinReinhardt.PNG","100","","","","","100","Franklin Reinhardt","B",""
"","image-slider-response-modified","323","5189047","0.0-324.0","60719","DH-005","15:11:12","","","","","","","","","","","","assessment 7","","518","components/portraits/StimImgFernandoAlves.PNG","-50","","","","","-50","Fernando Alves","B",""
"","html-keyboard-response","324","5190049","0.0-325.0","60719","DH-005","15:11:13","","","","","","","","","","","","","","null","[""<p style=\""font-size: 36px; width: 1200px; line-height: 40px;\"">Returning to the video...""]","null","","","","","","","",""
"","browser-check","325","5191052","0.0-326.0","60719","DH-005","15:11:14","1470","920","true","safari","17.4.0","false","Mac OS","true","60.06","true","true","Browser_Check","","","","","","","","","","","",""
"","video-keyboard-response","326","5268686","0.0-327.0","60719","DH-005","15:12:32","","","","","","","","","","","","video27","","null","[""components/stim/StimVid_Undoing2.mp4""]","null","","","","","","","",""
"","image-slider-response-modified","327","5278730","0.0-328.0","60719","DH-005","15:12:42","","","","","","","","","","","","assessment 0","","10039","components/portraits/StimImgJonathanFraser.PNG","-50","","","","","-36","Jonathan Fraser","B",""
"","image-slider-response-modified","328","5279079","0.0-329.0","60719","DH-005","15:12:42","","","","","","","","","","","","assessment 1","","348","components/portraits/StimImgSylviaSteinetz.PNG","-50","","","","","-50","Sylvia Steinetz","B",""
"","image-slider-response-modified","329","5279372","0.0-330.0","60719","DH-005","15:12:42","","","","","","","","","","","","assessment 2","","290","components/portraits/StimImgElenaAlves.PNG","0","","","","","0","Elena Alves","B",""
"","image-slider-response-modified","330","5279525","0.0-331.0","60719","DH-005","15:12:42","","","","","","","","","","","","assessment 3","","152","components/portraits/StimImgGraceFraser.PNG","100","","","","","100","Grace Fraser","B",""
"","image-slider-response-modified","331","5279671","0.0-332.0","60719","DH-005","15:12:43","","","","","","","","","","","","assessment 4","","145","components/portraits/StimImgHenryFraser.PNG","-80","","","","","-80","Henry Fraser","B",""
"","image-slider-response-modified","332","5279793","0.0-333.0","60719","DH-005","15:12:43","","","","","","","","","","","","assessment 5","","121","components/portraits/StimImgMiguelAlves.PNG","-100","","","","","-100","Miguel Alves","B",""
"","image-slider-response-modified","333","5280248","0.0-334.0","60719","DH-005","15:12:43","","","","","","","","","","","","assessment 6","","454","components/portraits/StimImgFranklinReinhardt.PNG","100","","","","","100","Franklin Reinhardt","B",""
"","image-slider-response-modified","334","5280808","0.0-335.0","60719","DH-005","15:12:44","","","","","","","","","","","","assessment 7","","558","components/portraits/StimImgFernandoAlves.PNG","-50","","","","","-50","Fernando Alves","B",""
"","html-keyboard-response","335","5281810","0.0-336.0","60719","DH-005","15:12:45","","","","","","","","","","","","","","null","[""<p style=\""font-size: 36px; width: 1200px; line-height: 40px;\"">Returning to the video...""]","null","","","","","","","",""
"","browser-check","336","5282818","0.0-337.0","60719","DH-005","15:12:46","1470","920","true","safari","17.4.0","false","Mac OS","true","59.88","true","true","Browser_Check","","","","","","","","","","","",""
"","video-keyboard-response","337","5368482","0.0-338.0","60719","DH-005","15:14:11","","","","","","","","","","","","video28","","null","[""components/stim/StimVid_Undoing2.mp4""]","null","","","","","","","",""
"","image-slider-response-modified","338","5380268","0.0-339.0","60719","DH-005","15:14:23","","","","","","","","","","","","assessment 0","","11781","components/portraits/StimImgJonathanFraser.PNG","-50","","","","","-50","Jonathan Fraser","B",""
"","image-slider-response-modified","339","5380545","0.0-340.0","60719","DH-005","15:14:23","","","","","","","","","","","","assessment 1","","276","components/portraits/StimImgSylviaSteinetz.PNG","-50","","","","","-50","Sylvia Steinetz","B",""
"","image-slider-response-modified","340","5380821","0.0-341.0","60719","DH-005","15:14:24","","","","","","","","","","","","assessment 2","","274","components/portraits/StimImgElenaAlves.PNG","0","","","","","0","Elena Alves","B",""
"","image-slider-response-modified","341","5381389","0.0-342.0","60719","DH-005","15:14:24","","","","","","","","","","","","assessment 3","","566","components/portraits/StimImgGraceFraser.PNG","100","","","","","100","Grace Fraser","B",""
"","image-slider-response-modified","342","5381681","0.0-343.0","60719","DH-005","15:14:25","","","","","","","","","","","","assessment 4","","291","components/portraits/StimImgHenryFraser.PNG","-80","","","","","-80","Henry Fraser","B",""
"","image-slider-response-modified","343","5381909","0.0-344.0","60719","DH-005","15:14:25","","","","","","","","","","","","assessment 5","","227","components/portraits/StimImgMiguelAlves.PNG","-100","","","","","-100","Miguel Alves","B",""
"","image-slider-response-modified","344","5382145","0.0-345.0","60719","DH-005","15:14:25","","","","","","","","","","","","assessment 6","","234","components/portraits/StimImgFranklinReinhardt.PNG","100","","","","","100","Franklin Reinhardt","B",""
"","image-slider-response-modified","345","5382656","0.0-346.0","60719","DH-005","15:14:26","","","","","","","","","","","","assessment 7","","509","components/portraits/StimImgFernandoAlves.PNG","-50","","","","","-50","Fernando Alves","B",""
"","html-keyboard-response","346","5383658","0.0-347.0","60719","DH-005","15:14:27","","","","","","","","","","","","","","null","[""<p style=\""font-size: 36px; width: 1200px; line-height: 40px;\"">Returning to the video...""]","null","","","","","","","",""
"","browser-check","347","5384667","0.0-348.0","60719","DH-005","15:14:28","1470","920","true","safari","17.4.0","false","Mac OS","true","59.7","true","true","Browser_Check","","","","","","","","","","","",""
"","video-keyboard-response","348","5466331","0.0-349.0","60719","DH-005","15:15:49","","","","","","","","","","","","video29","","null","[""components/stim/StimVid_Undoing2.mp4""]","null","","","","","","","",""
"","image-slider-response-modified","349","5472183","0.0-350.0","60719","DH-005","15:15:55","","","","","","","","","","","","assessment 0","","5849","components/portraits/StimImgJonathanFraser.PNG","-50","","","","","-50","Jonathan Fraser","B",""
"","image-slider-response-modified","350","5472492","0.0-351.0","60719","DH-005","15:15:55","","","","","","","","","","","","assessment 1","","308","components/portraits/StimImgSylviaSteinetz.PNG","-50","","","","","-50","Sylvia Steinetz","B",""
"","image-slider-response-modified","351","5472728","0.0-352.0","60719","DH-005","15:15:56","","","","","","","","","","","","assessment 2","","235","components/portraits/StimImgElenaAlves.PNG","0","","","","","0","Elena Alves","B",""
"","image-slider-response-modified","352","5473019","0.0-353.0","60719","DH-005","15:15:56","","","","","","","","","","","","assessment 3","","289","components/portraits/StimImgGraceFraser.PNG","100","","","","","100","Grace Fraser","B",""
"","image-slider-response-modified","353","5473377","0.0-354.0","60719","DH-005","15:15:56","","","","","","","","","","","","assessment 4","","356","components/portraits/StimImgHenryFraser.PNG","-80","","","","","-80","Henry Fraser","B",""
"","image-slider-response-modified","354","5473661","0.0-355.0","60719","DH-005","15:15:57","","","","","","","","","","","","assessment 5","","282","components/portraits/StimImgMiguelAlves.PNG","-100","","","","","-100","Miguel Alves","B",""
"","image-slider-response-modified","355","5474042","0.0-356.0","60719","DH-005","15:15:57","","","","","","","","","","","","assessment 6","","379","components/portraits/StimImgFranklinReinhardt.PNG","100","","","","","100","Franklin Reinhardt","B",""
"","image-slider-response-modified","356","5474455","0.0-357.0","60719","DH-005","15:15:57","","","","","","","","","","","","assessment 7","","411","components/portraits/StimImgFernandoAlves.PNG","-50","","","","","-50","Fernando Alves","B",""
"","html-keyboard-response","357","5475457","0.0-358.0","60719","DH-005","15:15:58","","","","","","","","","","","","","","null","[""<p style=\""font-size: 36px; width: 1200px; line-height: 40px;\"">Returning to the video...""]","null","","","","","","","",""
"","browser-check","358","5476466","0.0-359.0","60719","DH-005","15:15:59","1470","920","true","safari","17.4.0","false","Mac OS","true","59.76","true","true","Browser_Check","","","","","","","","","","","",""
"","video-keyboard-response","359","5556116","0.0-360.0","60719","DH-005","15:17:19","","","","","","","","","","","","video30","","null","[""components/stim/StimVid_Undoing2.mp4""]","null","","","","","","","",""
"","image-slider-response-modified","360","5570559","0.0-361.0","60719","DH-005","15:17:33","","","","","","","","","","","","assessment 0","","14437","components/portraits/StimImgJonathanFraser.PNG","-50","","","","","-50","Jonathan Fraser","B",""
"","image-slider-response-modified","361","5570759","0.0-362.0","60719","DH-005","15:17:34","","","","","","","","","","","","assessment 1","","199","components/portraits/StimImgSylviaSteinetz.PNG","-50","","","","","-50","Sylvia Steinetz","B",""
"","image-slider-response-modified","362","5570889","0.0-363.0","60719","DH-005","15:17:34","","","","","","","","","","","","assessment 2","","128","components/portraits/StimImgElenaAlves.PNG","0","","","","","0","Elena Alves","B",""
"","image-slider-response-modified","363","5571021","0.0-364.0","60719","DH-005","15:17:34","","","","","","","","","","","","assessment 3","","131","components/portraits/StimImgGraceFraser.PNG","100","","","","","100","Grace Fraser","B",""
"","image-slider-response-modified","364","5571149","0.0-365.0","60719","DH-005","15:17:34","","","","","","","","","","","","assessment 4","","127","components/portraits/StimImgHenryFraser.PNG","-80","","","","","-80","Henry Fraser","B",""
"","image-slider-response-modified","365","5571271","0.0-366.0","60719","DH-005","15:17:34","","","","","","","","","","","","assessment 5","","121","components/portraits/StimImgMiguelAlves.PNG","-100","","","","","-100","Miguel Alves","B",""
"","image-slider-response-modified","366","5571377","0.0-367.0","60719","DH-005","15:17:34","","","","","","","","","","","","assessment 6","","103","components/portraits/StimImgFranklinReinhardt.PNG","100","","","","","100","Franklin Reinhardt","B",""
"","image-slider-response-modified","367","5571491","0.0-368.0","60719","DH-005","15:17:34","","","","","","","","","","","","assessment 7","","113","components/portraits/StimImgFernandoAlves.PNG","-50","","","","","-50","Fernando Alves","B",""
"","html-keyboard-response","368","5572493","0.0-369.0","60719","DH-005","15:17:35","","","","","","","","","","","","","","null","[""<p style=\""font-size: 36px; width: 1200px; line-height: 40px;\"">Returning to the video...""]","null","","","","","","","",""
"","browser-check","369","5573482","0.0-370.0","60719","DH-005","15:17:36","1470","920","true","safari","17.4.0","false","Mac OS","true","60.85","true","true","Browser_Check","","","","","","","","","","","",""
"","video-keyboard-response","370","5653126","0.0-371.0","60719","DH-005","15:18:56","","","","","","","","","","","","video31","","null","[""components/stim/StimVid_Undoing2.mp4""]","null","","","","","","","",""
"","image-slider-response-modified","371","5661759","0.0-372.0","60719","DH-005","15:19:5","","","","","","","","","","","","assessment 0","","8629","components/portraits/StimImgJonathanFraser.PNG","-25","","","","","-50","Jonathan Fraser","B",""
"","image-slider-response-modified","372","5662142","0.0-373.0","60719","DH-005","15:19:5","","","","","","","","","","","","assessment 1","","381","components/portraits/StimImgSylviaSteinetz.PNG","-50","","","","","-50","Sylvia Steinetz","B",""
"","image-slider-response-modified","373","5662466","0.0-374.0","60719","DH-005","15:19:5","","","","","","","","","","","","assessment 2","","322","components/portraits/StimImgElenaAlves.PNG","0","","","","","0","Elena Alves","B",""
"","image-slider-response-modified","374","5662717","0.0-375.0","60719","DH-005","15:19:6","","","","","","","","","","","","assessment 3","","249","components/portraits/StimImgGraceFraser.PNG","100","","","","","100","Grace Fraser","B",""
"","image-slider-response-modified","375","5663016","0.0-376.0","60719","DH-005","15:19:6","","","","","","","","","","","","assessment 4","","299","components/portraits/StimImgHenryFraser.PNG","-80","","","","","-80","Henry Fraser","B",""
"","image-slider-response-modified","376","5663374","0.0-377.0","60719","DH-005","15:19:6","","","","","","","","","","","","assessment 5","","356","components/portraits/StimImgMiguelAlves.PNG","-100","","","","","-100","Miguel Alves","B",""
"","image-slider-response-modified","377","5663592","0.0-378.0","60719","DH-005","15:19:6","","","","","","","","","","","","assessment 6","","216","components/portraits/StimImgFranklinReinhardt.PNG","100","","","","","100","Franklin Reinhardt","B",""
"","image-slider-response-modified","378","5663770","0.0-379.0","60719","DH-005","15:19:7","","","","","","","","","","","","assessment 7","","177","components/portraits/StimImgFernandoAlves.PNG","-50","","","","","-50","Fernando Alves","B",""
"","html-keyboard-response","379","5664772","0.0-380.0","60719","DH-005","15:19:8","","","","","","","","","","","","","","null","[""<p style=\""font-size: 36px; width: 1200px; line-height: 40px;\"">Returning to the video...""]","null","","","","","","","",""
"","browser-check","380","5665764","0.0-381.0","60719","DH-005","15:19:9","1470","920","true","safari","17.4.0","false","Mac OS","true","60.67","true","true","Browser_Check","","","","","","","","","","","",""
"","video-keyboard-response","381","5767495","0.0-382.0","60719","DH-005","15:20:50","","","","","","","","","","","","video32","","null","[""components/stim/StimVid_Undoing2.mp4""]","null","","","","","","","",""
"","image-slider-response-modified","382","5823563","0.0-383.0","60719","DH-005","15:21:46","","","","","","","","","","","","assessment 0","","56065","components/portraits/StimImgJonathanFraser.PNG","0","","","","","-25","Jonathan Fraser","B",""
"","image-slider-response-modified","383","5823989","0.0-384.0","60719","DH-005","15:21:47","","","","","","","","","","","","assessment 1","","425","components/portraits/StimImgSylviaSteinetz.PNG","-50","","","","","-50","Sylvia Steinetz","B",""
"","image-slider-response-modified","384","5824197","0.0-385.0","60719","DH-005","15:21:47","","","","","","","","","","","","assessment 2","","206","components/portraits/StimImgElenaAlves.PNG","0","","","","","0","Elena Alves","B",""
"","image-slider-response-modified","385","5824457","0.0-386.0","60719","DH-005","15:21:47","","","","","","","","","","","","assessment 3","","256","components/portraits/StimImgGraceFraser.PNG","100","","","","","100","Grace Fraser","B",""
"","image-slider-response-modified","386","5824692","0.0-387.0","60719","DH-005","15:21:48","","","","","","","","","","","","assessment 4","","233","components/portraits/StimImgHenryFraser.PNG","-80","","","","","-80","Henry Fraser","B",""
"","image-slider-response-modified","387","5824814","0.0-388.0","60719","DH-005","15:21:48","","","","","","","","","","","","assessment 5","","120","components/portraits/StimImgMiguelAlves.PNG","-100","","","","","-100","Miguel Alves","B",""
"","image-slider-response-modified","388","5825074","0.0-389.0","60719","DH-005","15:21:48","","","","","","","","","","","","assessment 6","","258","components/portraits/StimImgFranklinReinhardt.PNG","100","","","","","100","Franklin Reinhardt","B",""
"","image-slider-response-modified","389","5825220","0.0-390.0","60719","DH-005","15:21:48","","","","","","","","","","","","assessment 7","","144","components/portraits/StimImgFernandoAlves.PNG","-50","","","","","-50","Fernando Alves","B",""
"","html-keyboard-response","390","5826223","0.0-391.0","60719","DH-005","15:21:49","","","","","","","","","","","","","","null","[""<p style=\""font-size: 36px; width: 1200px; line-height: 40px;\"">Returning to the video...""]","null","","","","","","","",""
"","browser-check","391","5827213","0.0-392.0","60719","DH-005","15:21:50","1470","920","true","safari","17.4.0","false","Mac OS","true","60.79","true","true","Browser_Check","","","","","","","","","","","",""
"","video-keyboard-response","392","5900844","0.0-393.0","60719","DH-005","15:23:4","","","","","","","","","","","","video33","","null","[""components/stim/StimVid_Undoing2.mp4""]","null","","","","","","","",""
"","image-slider-response-modified","393","5903516","0.0-394.0","60719","DH-005","15:23:6","","","","","","","","","","","","assessment 0","","2669","components/portraits/StimImgJonathanFraser.PNG","0","","","","","0","Jonathan Fraser","B",""
"","image-slider-response-modified","394","5903804","0.0-395.0","60719","DH-005","15:23:7","","","","","","","","","","","","assessment 1","","287","components/portraits/StimImgSylviaSteinetz.PNG","-50","","","","","-50","Sylvia Steinetz","B",""
"","image-slider-response-modified","395","5903990","0.0-396.0","60719","DH-005","15:23:7","","","","","","","","","","","","assessment 2","","185","components/portraits/StimImgElenaAlves.PNG","0","","","","","0","Elena Alves","B",""
"","image-slider-response-modified","396","5904186","0.0-397.0","60719","DH-005","15:23:7","","","","","","","","","","","","assessment 3","","195","components/portraits/StimImgGraceFraser.PNG","100","","","","","100","Grace Fraser","B",""
"","image-slider-response-modified","397","5904405","0.0-398.0","60719","DH-005","15:23:7","","","","","","","","","","","","assessment 4","","217","components/portraits/StimImgHenryFraser.PNG","-80","","","","","-80","Henry Fraser","B",""
"","image-slider-response-modified","398","5904663","0.0-399.0","60719","DH-005","15:23:8","","","","","","","","","","","","assessment 5","","258","components/portraits/StimImgMiguelAlves.PNG","-100","","","","","-100","Miguel Alves","B",""
"","image-slider-response-modified","399","5904948","0.0-400.0","60719","DH-005","15:23:8","","","","","","","","","","","","assessment 6","","283","components/portraits/StimImgFranklinReinhardt.PNG","100","","","","","100","Franklin Reinhardt","B",""
"","image-slider-response-modified","400","5905677","0.0-401.0","60719","DH-005","15:23:9","","","","","","","","","","","","assessment 7","","727","components/portraits/StimImgFernandoAlves.PNG","-50","","","","","-50","Fernando Alves","B",""
