"trial_id","trial_type","trial_index","time_elapsed","internal_node_id","subject_id","break_id","time","width","height","webaudio","browser","browser_version","mobile","os","fullscreen","vsync_rate","webcam","microphone","task","success","rt","stimulus","response","timeout","failed_images","failed_audio","failed_video","slider_start","character","label_condition","question_order"
"pavlovia_init","pavlovia","0","923","0.0-0.0","60588","DH-016","18:20:48","","","","","","","","","","","","","","","","","","","","","","","",""
"","browser-check","1","1924","0.0-1.0","60588","DH-016","18:20:49","1440","778","true","chrome","130.0.0","false","Mac OS","true","60.37","true","true","Browser_Check","","","","","","","","","","","",""
"","fullscreen","2","7811","0.0-2.0","60588","DH-016","18:20:55","","","","","","","","","","","","Fullscreen","true","4884","","","","","","","","","",""
"","html-keyboard-response","3","22919","0.0-3.0","60588","DH-016","18:21:10","","","","","","","","","","","","Instruction","","15105","[""<p style=\""font-size: 36px; width: 1200px; line-height: 40px;\"">During this experiment, you will watch an episode of a publicly broadcasted murder mystery television show.<br><br>It contains adult themes and graphic language. While the video will portray a character accused of a violent crime, as well as verbal descriptions of the crime, <strong>violence will not be shown</strong>, nor will any other graphic visual content.<br><br><br>If you are not comfortable with continuing, please exit this experiment now.<br><br><br><br>Otherwise, please press the <strong>SPACE BAR</strong> to continue.</p>""]"," ","","","","","","","",""
"","preload","4","23757","0.0-4.0","60588","DH-016","18:21:11","","","","","","","","","","","","Preload","true","","","","false","[]","[]","[]","","","",""
"","image-button-response-modified","5","40966","0.0-5.0","60588","DH-016","18:21:28","","","","","","","","","","","","Consent","","17207","components/consent/SONA.png","0","","","","","","","",""
"","html-keyboard-response","6","42067","0.0-6.0","60588","DH-016","18:21:30","","","","","","","","","","","","Instr_Task","","1099","<p style=""font-size: 36px; width: 1200px; line-height: 40px;"">Thank you for agreeing to participate in this experiment! <br><br><br><br> Please press the <strong>SPACE BAR</strong> to continue</p>"," ","","","","","","","",""
"","html-keyboard-response","7","48468","0.0-7.0","60588","DH-016","18:21:36","","","","","","","","","","","","Instr_Task","","6400","<p style=""font-size: 36px; width: 1200px; line-height: 40px;"">Before we begin, please be sure that you are in a good space to complete the experiment. This space should be: <br><br><br><br> <strong>Comfortable <br><br> Distraction-free <br><br> Available for the next 60 minutes</strong> <br><br><br><br><br> Please press the <strong>SPACE BAR</strong> to continue</p>"," ","","","","","","","",""
"","html-keyboard-response","8","345369","0.0-8.0","60588","DH-016","18:26:33","","","","","","","","","","","","Instr_Task","","296900","<p style=""font-size: 36px; width: 1200px; line-height: 40px;""><strong>Please give your full attention to the experiment. This includes:</strong> <br><br><br><br> Closing or minimizing other programs on your computer <br><br> Silencing your phone or placing it somewhere it will not be distracting <br><br> Testing that your audio is working and set to a comfortable volume that you can clearly hear <br><br> Not completing this experiment with others present <br><br><br><br><br> Please press the <strong>SPACE BAR</strong> to continue</p>"," ","","","","","","","",""
"","html-keyboard-response","9","363491","0.0-9.0","60588","DH-016","18:26:51","","","","","","","","","","","","Instr_Task","","18121","<p style=""font-size: 36px; width: 1200px; line-height: 40px;"">You will watch 45 minutes of a crime mystery drama in which one character is suspected of having murdered another.<br><br><br>We will present background information about the characters of the show and the surrounding context before the episode begins.<br><br><br><br> Please press the <strong>SPACE BAR</strong> to continue</p>"," ","","","","","","","",""
"","html-keyboard-response","10","375065","0.0-10.0","60588","DH-016","18:27:3","","","","","","","","","","","","Instr_Task","","11573","<p style=""font-size: 36px; width: 1200px; line-height: 40px;"">The video will intermittently pause while you watch to assess how certain <strong>you</strong> are that different characters in the show are guilty or innocent of having committed the murder.<br><br><br><br> Please press the <strong>SPACE BAR</strong> to continue</p>"," ","","","","","","","",""
"","html-keyboard-response","11","392511","0.0-11.0","60588","DH-016","18:27:20","","","","","","","","","","","","Instr_Task","","17445","<p style=""font-size: 36px; width: 1200px; line-height: 40px;"">These certainty assessments tend to be flexible and may shift upon hearing something that a character says or seeing something that a character does or events that occur when a character is not on screen.<br><br><br>Some of this information may influence your assessments only slightly while other information may influence your assessments a great deal.<br><br><br>When prompted, please update your rating of how certain you are of each character's innocence or guilt at that moment in time. <br><br><br> Please try to be as precise as you can.<br><br><br><br> Please press the <strong>SPACE BAR</strong> to continue</p>"," ","","","","","","","",""
"","html-keyboard-response","12","403979","0.0-12.0","60588","DH-016","18:27:31","","","","","","","","","","","","Instr_Task","","11467","<p style=""font-size: 36px; width: 1200px; line-height: 40px;"">These certainty assessments will be assessed on a continuous scale. <br><br><br> The scale ranges from 100% certain that a character is guilty to 100% certain that a character is innocent.<br><br><br>Leaving the scale in the middle (i.e., 0% certain) would indicate that you are completely uncertain whether a character is innocent or guilt.<br><br><br><br> Please press the <strong>SPACE BAR</strong> to continue</p>"," ","","","","","","","",""
"","html-keyboard-response","13","415967","0.0-13.0","60588","DH-016","18:27:43","","","","","","","","","","","","Instr_Task","","11988","<p style=""font-size: 36px; width: 1200px; line-height: 40px;"">After your first rating, we will mark the scale where you had last rated that character to hopefully make updating your certainty rating easier. <br><br><br>A progress bar at the top will show the order in which you will assess the characters.<br><br><br>A portrait in the center of the screen will identify which character you are assessing at that moment.<br><br><br>Let's look at an example of what this looks like.<br><br><br><br> Please press the <strong>SPACE BAR</strong> to continue</p>"," ","","","","","","","",""
"","preload","14","417240","0.0-14.0","60588","DH-016","18:27:45","","","","","","","","","","","","Preload","true","","","","false","[]","[]","[]","","","",""
"","image-slider-response-modified","15","437408","0.0-15.0","60588","DH-016","18:28:5","","","","","","","","","","","","Practice","","20164","components/portraits/StimImgElenaAlves.PNG","0","","","","","0","Elena Alves","A",""
"","image-slider-response-modified","16","451215","0.0-16.0-0.0-0.0","60588","DH-016","18:28:19","","","","","","","","","","","","PracticeFailure","","13802","components/portraits/StimImgElenaAlves.PNG","50","","","","","0","Elena Alves","A",""
"","html-keyboard-response","17","456109","0.0-17.0","60588","DH-016","18:28:24","","","","","","","","","","","","PracticeSuccess","","4892","[""<p style=\""font-size: 36px; width: 1200px; line-height: 40px;\"">Great! If you have any questions that you must have answered before continuing, please contact study staff via the recruitment platform.<br><br><br>If you are ready to start, we will present the background information.<br><br><br><br> Please press the <strong>SPACE BAR</strong> to continue</p>""]"," ","","","","","","","",""
"","image-keyboard-response-modified","18","472769","0.0-18.0","60588","DH-016","18:28:40","","","","","","","","","","","","Background","","16658","[""components/portraits/StimImgElenaAlves.PNG"",""components/portraits/StimImgJonathanFraser.PNG""]"," ","","","","","","","",""
"","image-keyboard-response-modified","19","488451","0.0-19.0","60588","DH-016","18:28:56","","","","","","","","","","","","Background","","15699","[""components/portraits/StimImgElenaAlves.PNG"",""components/portraits/StimImgJonathanFraser.PNG""]"," ","","","","","","","",""
"","image-keyboard-response-modified","20","500552","0.0-20.0","60588","DH-016","18:29:8","","","","","","","","","","","","Background","","12115","[""components/portraits/StimImgMiguelAlves.PNG"",""components/portraits/StimImgHenryFraser.PNG""]"," ","","","","","","","",""
"","image-keyboard-response-modified","21","509767","0.0-21.0","60588","DH-016","18:29:17","","","","","","","","","","","","Background","","9220","[""components/portraits/StimImgFernandoAlves.PNG"",""components/portraits/StimImgGraceFraser.PNG""]"," ","","","","","","","",""
"","image-keyboard-response-modified","22","522190","0.0-22.0","60588","DH-016","18:29:30","","","","","","","","","","","","Background","","12427","[""components/portraits/StimImgSylviaSteinetz.PNG"",""components/portraits/StimImgFranklinReinhardt.PNG""]"," ","","","","","","","",""
"","image-keyboard-response-modified","23","536164","0.0-23.0","60588","DH-016","18:29:44","","","","","","","","","","","","Background","","13975","[""components/portraits/StimImgRobertAdelman.PNG"",""components/portraits/StimImgHaleyFitzgerald.PNG""]"," ","","","","","","","",""
"","image-keyboard-response-modified","24","543876","0.0-24.0","60588","DH-016","18:29:51","","","","","","","","","","","","Background","","7712","[""components/portraits/StimImgJoeMendoza.PNG""]"," ","","","","","","","",""
"","html-keyboard-response","25","544912","0.0-25.0","60588","DH-016","18:29:52","","","","","","","","","","","","Instr_ExpStart","","1036","[""<p style=\""font-size: 36px; width: 1200px; line-height: 40px;\"">The experiment will now start! <br><br><br><br> Please press the <strong>SPACE BAR</strong> to continue</p>""]"," ","","","","","","","",""
"","preload","26","576412","0.0-26.0","60588","DH-016","18:30:24","","","","","","","","","","","","Preload","true","","","","false","[]","[]","[]","","","",""
"","browser-check","27","577410","0.0-27.0","60588","DH-016","18:30:25","1440","900","true","chrome","130.0.0","false","Mac OS","true","60.32","true","true","Browser_Check","","","","","","","","","","","",""
"","video-keyboard-response","28","649956","0.0-28.0","60588","DH-016","18:31:37","","","","","","","","","","","","video 0","","null","[""components/stim/StimVid_Undoing1.mp4""]","null","","","","","","","",""
"","image-slider-response-modified","29","678008","0.0-29.0","60588","DH-016","18:32:6","","","","","","","","","","","","assessment 0","","28049","components/portraits/StimImgElenaAlves.PNG","45","","","","","0","Elena Alves","A",""
"","image-slider-response-modified","30","682151","0.0-30.0","60588","DH-016","18:32:10","","","","","","","","","","","","assessment 1","","4140","components/portraits/StimImgFranklinReinhardt.PNG","0","","","","","0","Franklin Reinhardt","A",""
"","image-slider-response-modified","31","683579","0.0-31.0","60588","DH-016","18:32:11","","","","","","","","","","","","assessment 2","","1425","components/portraits/StimImgHenryFraser.PNG","0","","","","","0","Henry Fraser","A",""
"","image-slider-response-modified","32","694860","0.0-32.0","60588","DH-016","18:32:22","","","","","","","","","","","","assessment 3","","11278","components/portraits/StimImgJonathanFraser.PNG","0","","","","","0","Jonathan Fraser","A",""
"","image-slider-response-modified","33","701490","0.0-33.0","60588","DH-016","18:32:29","","","","","","","","","","","","assessment 4","","6627","components/portraits/StimImgMiguelAlves.PNG","0","","","","","0","Miguel Alves","A",""
"","image-slider-response-modified","34","702868","0.0-34.0","60588","DH-016","18:32:30","","","","","","","","","","","","assessment 5","","1375","components/portraits/StimImgFernandoAlves.PNG","0","","","","","0","Fernando Alves","A",""
"","image-slider-response-modified","35","704409","0.0-35.0","60588","DH-016","18:32:32","","","","","","","","","","","","assessment 6","","1538","components/portraits/StimImgSylviaSteinetz.PNG","0","","","","","0","Sylvia Steinetz","A",""
"","image-slider-response-modified","36","708934","0.0-36.0","60588","DH-016","18:32:36","","","","","","","","","","","","assessment 7","","4522","components/portraits/StimImgGraceFraser.PNG","0","","","","","0","Grace Fraser","A",""
"","html-keyboard-response","37","709938","0.0-37.0","60588","DH-016","18:32:37","","","","","","","","","","","","","","null","[""<p style=\""font-size: 36px; width: 1200px; line-height: 40px;\"">Returning to the video...""]","null","","","","","","","",""
"","browser-check","38","710947","0.0-38.0","60588","DH-016","18:32:38","1440","900","true","chrome","130.0.0","false","Mac OS","true","59.58","true","true","Browser_Check","","","","","","","","","","","",""
"","video-keyboard-response","39","796306","0.0-39.0","60588","DH-016","18:34:4","","","","","","","","","","","","video 1","","null","[""components/stim/StimVid_Undoing1.mp4""]","null","","","","","","","",""
"","image-slider-response-modified","40","830481","0.0-40.0","60588","DH-016","18:34:38","","","","","","","","","","","","assessment 0","","34172","components/portraits/StimImgElenaAlves.PNG","-1","","","","","45","Elena Alves","A",""
"","image-slider-response-modified","41","832512","0.0-41.0","60588","DH-016","18:34:40","","","","","","","","","","","","assessment 1","","2027","components/portraits/StimImgFranklinReinhardt.PNG","0","","","","","0","Franklin Reinhardt","A",""
"","image-slider-response-modified","42","833602","0.0-42.0","60588","DH-016","18:34:41","","","","","","","","","","","","assessment 2","","1086","components/portraits/StimImgHenryFraser.PNG","0","","","","","0","Henry Fraser","A",""
"","image-slider-response-modified","43","835531","0.0-43.0","60588","DH-016","18:34:43","","","","","","","","","","","","assessment 3","","1925","components/portraits/StimImgJonathanFraser.PNG","0","","","","","0","Jonathan Fraser","A",""
"","image-slider-response-modified","44","836145","0.0-44.0","60588","DH-016","18:34:44","","","","","","","","","","","","assessment 4","","609","components/portraits/StimImgMiguelAlves.PNG","0","","","","","0","Miguel Alves","A",""
"","image-slider-response-modified","45","837936","0.0-45.0","60588","DH-016","18:34:45","","","","","","","","","","","","assessment 5","","1787","components/portraits/StimImgFernandoAlves.PNG","0","","","","","0","Fernando Alves","A",""
"","image-slider-response-modified","46","838784","0.0-46.0","60588","DH-016","18:34:46","","","","","","","","","","","","assessment 6","","845","components/portraits/StimImgSylviaSteinetz.PNG","0","","","","","0","Sylvia Steinetz","A",""
"","image-slider-response-modified","47","841663","0.0-47.0","60588","DH-016","18:34:49","","","","","","","","","","","","assessment 7","","2875","components/portraits/StimImgGraceFraser.PNG","0","","","","","0","Grace Fraser","A",""
"","html-keyboard-response","48","842667","0.0-48.0","60588","DH-016","18:34:50","","","","","","","","","","","","","","null","[""<p style=\""font-size: 36px; width: 1200px; line-height: 40px;\"">Returning to the video...""]","null","","","","","","","",""
"","browser-check","49","843666","0.0-49.0","60588","DH-016","18:34:51","1440","900","true","chrome","130.0.0","false","Mac OS","true","60.19","true","true","Browser_Check","","","","","","","","","","","",""
"","video-keyboard-response","50","914956","0.0-50.0","60588","DH-016","18:36:2","","","","","","","","","","","","video 2","","null","[""components/stim/StimVid_Undoing1.mp4""]","null","","","","","","","",""
"","image-slider-response-modified","51","918735","0.0-51.0","60588","DH-016","18:36:6","","","","","","","","","","","","assessment 0","","3776","components/portraits/StimImgElenaAlves.PNG","-1","","","","","-1","Elena Alves","A",""
"","image-slider-response-modified","52","919761","0.0-52.0","60588","DH-016","18:36:7","","","","","","","","","","","","assessment 1","","1022","components/portraits/StimImgFranklinReinhardt.PNG","0","","","","","0","Franklin Reinhardt","A",""
"","image-slider-response-modified","53","920719","0.0-53.0","60588","DH-016","18:36:8","","","","","","","","","","","","assessment 2","","954","components/portraits/StimImgHenryFraser.PNG","0","","","","","0","Henry Fraser","A",""
"","image-slider-response-modified","54","920940","0.0-54.0","60588","DH-016","18:36:8","","","","","","","","","","","","assessment 3","","217","components/portraits/StimImgJonathanFraser.PNG","0","","","","","0","Jonathan Fraser","A",""
"","image-slider-response-modified","55","921112","0.0-55.0","60588","DH-016","18:36:9","","","","","","","","","","","","assessment 4","","169","components/portraits/StimImgMiguelAlves.PNG","0","","","","","0","Miguel Alves","A",""
"","image-slider-response-modified","56","921837","0.0-56.0","60588","DH-016","18:36:9","","","","","","","","","","","","assessment 5","","721","components/portraits/StimImgFernandoAlves.PNG","0","","","","","0","Fernando Alves","A",""
"","image-slider-response-modified","57","922729","0.0-57.0","60588","DH-016","18:36:10","","","","","","","","","","","","assessment 6","","887","components/portraits/StimImgSylviaSteinetz.PNG","0","","","","","0","Sylvia Steinetz","A",""
"","image-slider-response-modified","58","931434","0.0-58.0","60588","DH-016","18:36:19","","","","","","","","","","","","assessment 7","","8701","components/portraits/StimImgGraceFraser.PNG","55","","","","","0","Grace Fraser","A",""
"","html-keyboard-response","59","932437","0.0-59.0","60588","DH-016","18:36:20","","","","","","","","","","","","","","null","[""<p style=\""font-size: 36px; width: 1200px; line-height: 40px;\"">Returning to the video...""]","null","","","","","","","",""
"","browser-check","60","933435","0.0-60.0","60588","DH-016","18:36:21","1440","900","true","chrome","130.0.0","false","Mac OS","true","60.21","true","true","Browser_Check","","","","","","","","","","","",""
"","video-keyboard-response","61","1018777","0.0-61.0","60588","DH-016","18:37:46","","","","","","","","","","","","video 3","","null","[""components/stim/StimVid_Undoing1.mp4""]","null","","","","","","","",""
"","image-slider-response-modified","62","1028483","0.0-62.0","60588","DH-016","18:37:56","","","","","","","","","","","","assessment 0","","9703","components/portraits/StimImgElenaAlves.PNG","-1","","","","","-1","Elena Alves","A",""
"","image-slider-response-modified","63","1032410","0.0-63.0","60588","DH-016","18:38:0","","","","","","","","","","","","assessment 1","","3923","components/portraits/StimImgFranklinReinhardt.PNG","0","","","","","0","Franklin Reinhardt","A",""
"","image-slider-response-modified","64","1033022","0.0-64.0","60588","DH-016","18:38:1","","","","","","","","","","","","assessment 2","","608","components/portraits/StimImgHenryFraser.PNG","0","","","","","0","Henry Fraser","A",""
"","image-slider-response-modified","65","1033697","0.0-65.0","60588","DH-016","18:38:1","","","","","","","","","","","","assessment 3","","672","components/portraits/StimImgJonathanFraser.PNG","0","","","","","0","Jonathan Fraser","A",""
"","image-slider-response-modified","66","1034639","0.0-66.0","60588","DH-016","18:38:2","","","","","","","","","","","","assessment 4","","938","components/portraits/StimImgMiguelAlves.PNG","0","","","","","0","Miguel Alves","A",""
"","image-slider-response-modified","67","1036231","0.0-67.0","60588","DH-016","18:38:4","","","","","","","","","","","","assessment 5","","1589","components/portraits/StimImgFernandoAlves.PNG","0","","","","","0","Fernando Alves","A",""
"","image-slider-response-modified","68","1037073","0.0-68.0","60588","DH-016","18:38:5","","","","","","","","","","","","assessment 6","","838","components/portraits/StimImgSylviaSteinetz.PNG","0","","","","","0","Sylvia Steinetz","A",""
"","image-slider-response-modified","69","1039398","0.0-69.0","60588","DH-016","18:38:7","","","","","","","","","","","","assessment 7","","2321","components/portraits/StimImgGraceFraser.PNG","55","","","","","55","Grace Fraser","A",""
"","html-keyboard-response","70","1040401","0.0-70.0","60588","DH-016","18:38:8","","","","","","","","","","","","","","null","[""<p style=\""font-size: 36px; width: 1200px; line-height: 40px;\"">Returning to the video...""]","null","","","","","","","",""
"","browser-check","71","1041401","0.0-71.0","60588","DH-016","18:38:9","1440","900","true","chrome","130.0.0","false","Mac OS","true","60.08","true","true","Browser_Check","","","","","","","","","","","",""
"","video-keyboard-response","72","1112677","0.0-72.0","60588","DH-016","18:39:20","","","","","","","","","","","","video 4","","null","[""components/stim/StimVid_Undoing1.mp4""]","null","","","","","","","",""
"","image-slider-response-modified","73","1114829","0.0-73.0","60588","DH-016","18:39:22","","","","","","","","","","","","assessment 0","","2149","components/portraits/StimImgElenaAlves.PNG","-1","","","","","-1","Elena Alves","A",""
"","image-slider-response-modified","74","1116518","0.0-74.0","60588","DH-016","18:39:24","","","","","","","","","","","","assessment 1","","1684","components/portraits/StimImgFranklinReinhardt.PNG","0","","","","","0","Franklin Reinhardt","A",""
"","image-slider-response-modified","75","1116992","0.0-75.0","60588","DH-016","18:39:24","","","","","","","","","","","","assessment 2","","470","components/portraits/StimImgHenryFraser.PNG","0","","","","","0","Henry Fraser","A",""
"","image-slider-response-modified","76","1123153","0.0-76.0","60588","DH-016","18:39:31","","","","","","","","","","","","assessment 3","","6157","components/portraits/StimImgJonathanFraser.PNG","0","","","","","0","Jonathan Fraser","A",""
"","image-slider-response-modified","77","1125013","0.0-77.0","60588","DH-016","18:39:33","","","","","","","","","","","","assessment 4","","1857","components/portraits/StimImgMiguelAlves.PNG","0","","","","","0","Miguel Alves","A",""
"","image-slider-response-modified","78","1126292","0.0-78.0","60588","DH-016","18:39:34","","","","","","","","","","","","assessment 5","","1274","components/portraits/StimImgFernandoAlves.PNG","0","","","","","0","Fernando Alves","A",""
"","image-slider-response-modified","79","1127401","0.0-79.0","60588","DH-016","18:39:35","","","","","","","","","","","","assessment 6","","1104","components/portraits/StimImgSylviaSteinetz.PNG","0","","","","","0","Sylvia Steinetz","A",""
"","image-slider-response-modified","80","1128309","0.0-80.0","60588","DH-016","18:39:36","","","","","","","","","","","","assessment 7","","904","components/portraits/StimImgGraceFraser.PNG","55","","","","","55","Grace Fraser","A",""
"","html-keyboard-response","81","1129312","0.0-81.0","60588","DH-016","18:39:37","","","","","","","","","","","","","","null","[""<p style=\""font-size: 36px; width: 1200px; line-height: 40px;\"">Returning to the video...""]","null","","","","","","","",""
"","browser-check","82","1130332","0.0-82.0","60588","DH-016","18:39:38","1440","900","true","chrome","130.0.0","false","Mac OS","true","60.02","true","true","Browser_Check","","","","","","","","","","","",""
"","video-keyboard-response","83","1247545","0.0-83.0","60588","DH-016","18:41:35","","","","","","","","","","","","video 5","","null","[""components/stim/StimVid_Undoing1.mp4""]","null","","","","","","","",""
"","image-slider-response-modified","84","1249327","0.0-84.0","60588","DH-016","18:41:37","","","","","","","","","","","","assessment 0","","1779","components/portraits/StimImgElenaAlves.PNG","-1","","","","","-1","Elena Alves","A",""
"","image-slider-response-modified","85","1249577","0.0-85.0","60588","DH-016","18:41:37","","","","","","","","","","","","assessment 1","","247","components/portraits/StimImgFranklinReinhardt.PNG","0","","","","","0","Franklin Reinhardt","A",""
"","image-slider-response-modified","86","1250096","0.0-86.0","60588","DH-016","18:41:38","","","","","","","","","","","","assessment 2","","514","components/portraits/StimImgHenryFraser.PNG","0","","","","","0","Henry Fraser","A",""
"","image-slider-response-modified","87","1260694","0.0-87.0","60588","DH-016","18:41:48","","","","","","","","","","","","assessment 3","","10597","components/portraits/StimImgJonathanFraser.PNG","14","","","","","0","Jonathan Fraser","A",""
"","image-slider-response-modified","88","1261485","0.0-88.0","60588","DH-016","18:41:49","","","","","","","","","","","","assessment 4","","787","components/portraits/StimImgMiguelAlves.PNG","0","","","","","0","Miguel Alves","A",""
"","image-slider-response-modified","89","1261639","0.0-89.0","60588","DH-016","18:41:49","","","","","","","","","","","","assessment 5","","150","components/portraits/StimImgFernandoAlves.PNG","0","","","","","0","Fernando Alves","A",""
"","image-slider-response-modified","90","1261827","0.0-90.0","60588","DH-016","18:41:49","","","","","","","","","","","","assessment 6","","184","components/portraits/StimImgSylviaSteinetz.PNG","0","","","","","0","Sylvia Steinetz","A",""
"","image-slider-response-modified","91","1264553","0.0-91.0","60588","DH-016","18:41:52","","","","","","","","","","","","assessment 7","","2722","components/portraits/StimImgGraceFraser.PNG","55","","","","","55","Grace Fraser","A",""
"","html-keyboard-response","92","1265556","0.0-92.0","60588","DH-016","18:41:53","","","","","","","","","","","","","","null","[""<p style=\""font-size: 36px; width: 1200px; line-height: 40px;\"">Returning to the video...""]","null","","","","","","","",""
"","browser-check","93","1266556","0.0-93.0","60588","DH-016","18:41:54","1440","900","true","chrome","130.0.0","false","Mac OS","true","60.11","true","true","Browser_Check","","","","","","","","","","","",""
"","video-keyboard-response","94","1337805","0.0-94.0","60588","DH-016","18:43:5","","","","","","","","","","","","video 6","","null","[""components/stim/StimVid_Undoing1.mp4""]","null","","","","","","","",""
"","image-slider-response-modified","95","1347970","0.0-95.0","60588","DH-016","18:43:15","","","","","","","","","","","","assessment 0","","10161","components/portraits/StimImgElenaAlves.PNG","80","","","","","-1","Elena Alves","A",""
"","image-slider-response-modified","96","1355285","0.0-96.0","60588","DH-016","18:43:23","","","","","","","","","","","","assessment 1","","7312","components/portraits/StimImgFranklinReinhardt.PNG","0","","","","","0","Franklin Reinhardt","A",""
"","image-slider-response-modified","97","1355592","0.0-97.0","60588","DH-016","18:43:23","","","","","","","","","","","","assessment 2","","304","components/portraits/StimImgHenryFraser.PNG","0","","","","","0","Henry Fraser","A",""
"","image-slider-response-modified","98","1355902","0.0-98.0","60588","DH-016","18:43:23","","","","","","","","","","","","assessment 3","","305","components/portraits/StimImgJonathanFraser.PNG","14","","","","","14","Jonathan Fraser","A",""
"","image-slider-response-modified","99","1357377","0.0-99.0","60588","DH-016","18:43:25","","","","","","","","","","","","assessment 4","","1472","components/portraits/StimImgMiguelAlves.PNG","0","","","","","0","Miguel Alves","A",""
"","image-slider-response-modified","100","1357868","0.0-100.0","60588","DH-016","18:43:25","","","","","","","","","","","","assessment 5","","487","components/portraits/StimImgFernandoAlves.PNG","0","","","","","0","Fernando Alves","A",""
"","image-slider-response-modified","101","1359010","0.0-101.0","60588","DH-016","18:43:27","","","","","","","","","","","","assessment 6","","1137","components/portraits/StimImgSylviaSteinetz.PNG","0","","","","","0","Sylvia Steinetz","A",""
"","image-slider-response-modified","102","1366095","0.0-102.0","60588","DH-016","18:43:34","","","","","","","","","","","","assessment 7","","7082","components/portraits/StimImgGraceFraser.PNG","95","","","","","55","Grace Fraser","A",""
"","html-keyboard-response","103","1367098","0.0-103.0","60588","DH-016","18:43:35","","","","","","","","","","","","","","null","[""<p style=\""font-size: 36px; width: 1200px; line-height: 40px;\"">Returning to the video...""]","null","","","","","","","",""
"","browser-check","104","1368122","0.0-104.0","60588","DH-016","18:43:36","1440","900","true","chrome","130.0.0","false","Mac OS","true","58.73","true","true","Browser_Check","","","","","","","","","","","",""
"","video-keyboard-response","105","1439544","0.0-105.0","60588","DH-016","18:44:47","","","","","","","","","","","","video 7","","null","[""components/stim/StimVid_Undoing1.mp4""]","null","","","","","","","",""
"","image-slider-response-modified","106","1442086","0.0-106.0","60588","DH-016","18:44:50","","","","","","","","","","","","assessment 0","","2538","components/portraits/StimImgElenaAlves.PNG","80","","","","","80","Elena Alves","A",""
"","image-slider-response-modified","107","1449612","0.0-107.0","60588","DH-016","18:44:57","","","","","","","","","","","","assessment 1","","7524","components/portraits/StimImgFranklinReinhardt.PNG","-7","","","","","0","Franklin Reinhardt","A",""
"","image-slider-response-modified","108","1450469","0.0-108.0","60588","DH-016","18:44:58","","","","","","","","","","","","assessment 2","","855","components/portraits/StimImgHenryFraser.PNG","0","","","","","0","Henry Fraser","A",""
"","image-slider-response-modified","109","1450745","0.0-109.0","60588","DH-016","18:44:58","","","","","","","","","","","","assessment 3","","273","components/portraits/StimImgJonathanFraser.PNG","14","","","","","14","Jonathan Fraser","A",""
"","image-slider-response-modified","110","1451520","0.0-110.0","60588","DH-016","18:44:59","","","","","","","","","","","","assessment 4","","771","components/portraits/StimImgMiguelAlves.PNG","0","","","","","0","Miguel Alves","A",""
"","image-slider-response-modified","111","1452562","0.0-111.0","60588","DH-016","18:45:0","","","","","","","","","","","","assessment 5","","1038","components/portraits/StimImgFernandoAlves.PNG","0","","","","","0","Fernando Alves","A",""
"","image-slider-response-modified","112","1453242","0.0-112.0","60588","DH-016","18:45:1","","","","","","","","","","","","assessment 6","","675","components/portraits/StimImgSylviaSteinetz.PNG","0","","","","","0","Sylvia Steinetz","A",""
"","image-slider-response-modified","113","1453768","0.0-113.0","60588","DH-016","18:45:1","","","","","","","","","","","","assessment 7","","522","components/portraits/StimImgGraceFraser.PNG","95","","","","","95","Grace Fraser","A",""
"","html-keyboard-response","114","1454771","0.0-114.0","60588","DH-016","18:45:2","","","","","","","","","","","","","","null","[""<p style=\""font-size: 36px; width: 1200px; line-height: 40px;\"">Returning to the video...""]","null","","","","","","","",""
"","browser-check","115","1455770","0.0-115.0","60588","DH-016","18:45:3","1440","900","true","chrome","130.0.0","false","Mac OS","true","60.23","true","true","Browser_Check","","","","","","","","","","","",""
"","video-keyboard-response","116","1567173","0.0-116.0","60588","DH-016","18:46:55","","","","","","","","","","","","video 8","","null","[""components/stim/StimVid_Undoing1.mp4""]","null","","","","","","","",""
"","image-slider-response-modified","117","1569487","0.0-117.0","60588","DH-016","18:46:57","","","","","","","","","","","","assessment 0","","2310","components/portraits/StimImgElenaAlves.PNG","80","","","","","80","Elena Alves","A",""
"","image-slider-response-modified","118","1570263","0.0-118.0","60588","DH-016","18:46:58","","","","","","","","","","","","assessment 1","","772","components/portraits/StimImgFranklinReinhardt.PNG","-7","","","","","-7","Franklin Reinhardt","A",""
"","image-slider-response-modified","119","1570989","0.0-119.0","60588","DH-016","18:46:58","","","","","","","","","","","","assessment 2","","723","components/portraits/StimImgHenryFraser.PNG","0","","","","","0","Henry Fraser","A",""
"","image-slider-response-modified","120","1573650","0.0-120.0","60588","DH-016","18:47:1","","","","","","","","","","","","assessment 3","","2656","components/portraits/StimImgJonathanFraser.PNG","14","","","","","14","Jonathan Fraser","A",""
"","image-slider-response-modified","121","1573871","0.0-121.0","60588","DH-016","18:47:1","","","","","","","","","","","","assessment 4","","217","components/portraits/StimImgMiguelAlves.PNG","0","","","","","0","Miguel Alves","A",""
"","image-slider-response-modified","122","1574096","0.0-122.0","60588","DH-016","18:47:2","","","","","","","","","","","","assessment 5","","222","components/portraits/StimImgFernandoAlves.PNG","0","","","","","0","Fernando Alves","A",""
"","image-slider-response-modified","123","1575168","0.0-123.0","60588","DH-016","18:47:3","","","","","","","","","","","","assessment 6","","1070","components/portraits/StimImgSylviaSteinetz.PNG","0","","","","","0","Sylvia Steinetz","A",""
"","image-slider-response-modified","124","1575389","0.0-124.0","60588","DH-016","18:47:3","","","","","","","","","","","","assessment 7","","217","components/portraits/StimImgGraceFraser.PNG","95","","","","","95","Grace Fraser","A",""
"","html-keyboard-response","125","1576392","0.0-125.0","60588","DH-016","18:47:4","","","","","","","","","","","","","","null","[""<p style=\""font-size: 36px; width: 1200px; line-height: 40px;\"">Returning to the video...""]","null","","","","","","","",""
"","browser-check","126","1577394","0.0-126.0","60588","DH-016","18:47:5","1440","900","true","chrome","130.0.0","false","Mac OS","true","60.02","true","true","Browser_Check","","","","","","","","","","","",""
"","video-keyboard-response","127","1652692","0.0-127.0","60588","DH-016","18:48:20","","","","","","","","","","","","video 9","","null","[""components/stim/StimVid_Undoing1.mp4""]","null","","","","","","","",""
"","image-slider-response-modified","128","1655391","0.0-128.0","60588","DH-016","18:48:23","","","","","","","","","","","","assessment 0","","2695","components/portraits/StimImgElenaAlves.PNG","80","","","","","80","Elena Alves","A",""
"","image-slider-response-modified","129","1663329","0.0-129.0","60588","DH-016","18:48:31","","","","","","","","","","","","assessment 1","","7936","components/portraits/StimImgFranklinReinhardt.PNG","0","","","","","-7","Franklin Reinhardt","A",""
"","image-slider-response-modified","130","1664642","0.0-130.0","60588","DH-016","18:48:32","","","","","","","","","","","","assessment 2","","1310","components/portraits/StimImgHenryFraser.PNG","0","","","","","0","Henry Fraser","A",""
"","image-slider-response-modified","131","1665483","0.0-131.0","60588","DH-016","18:48:33","","","","","","","","","","","","assessment 3","","838","components/portraits/StimImgJonathanFraser.PNG","14","","","","","14","Jonathan Fraser","A",""
"","image-slider-response-modified","132","1665673","0.0-132.0","60588","DH-016","18:48:33","","","","","","","","","","","","assessment 4","","186","components/portraits/StimImgMiguelAlves.PNG","0","","","","","0","Miguel Alves","A",""
"","image-slider-response-modified","133","1666699","0.0-133.0","60588","DH-016","18:48:34","","","","","","","","","","","","assessment 5","","1022","components/portraits/StimImgFernandoAlves.PNG","0","","","","","0","Fernando Alves","A",""
"","image-slider-response-modified","134","1667594","0.0-134.0","60588","DH-016","18:48:35","","","","","","","","","","","","assessment 6","","891","components/portraits/StimImgSylviaSteinetz.PNG","0","","","","","0","Sylvia Steinetz","A",""
"","image-slider-response-modified","135","1672992","0.0-135.0","60588","DH-016","18:48:40","","","","","","","","","","","","assessment 7","","5394","components/portraits/StimImgGraceFraser.PNG","95","","","","","95","Grace Fraser","A",""
"","html-keyboard-response","136","1673994","0.0-136.0","60588","DH-016","18:48:41","","","","","","","","","","","","","","null","[""<p style=\""font-size: 36px; width: 1200px; line-height: 40px;\"">Returning to the video...""]","null","","","","","","","",""
"","browser-check","137","1674995","0.0-137.0","60588","DH-016","18:48:42","1440","900","true","chrome","130.0.0","false","Mac OS","true","60.07","true","true","Browser_Check","","","","","","","","","","","",""
"","video-keyboard-response","138","1770163","0.0-138.0","60588","DH-016","18:50:18","","","","","","","","","","","","video 10","","null","[""components/stim/StimVid_Undoing1.mp4""]","null","","","","","","","",""
"","image-slider-response-modified","139","1772787","0.0-139.0","60588","DH-016","18:50:20","","","","","","","","","","","","assessment 0","","2620","components/portraits/StimImgElenaAlves.PNG","80","","","","","80","Elena Alves","A",""
"","image-slider-response-modified","140","1775413","0.0-140.0","60588","DH-016","18:50:23","","","","","","","","","","","","assessment 1","","2624","components/portraits/StimImgFranklinReinhardt.PNG","0","","","","","0","Franklin Reinhardt","A",""
"","image-slider-response-modified","141","1781788","0.0-141.0","60588","DH-016","18:50:29","","","","","","","","","","","","assessment 2","","6371","components/portraits/StimImgHenryFraser.PNG","100","","","","","0","Henry Fraser","A",""
"","image-slider-response-modified","142","1782879","0.0-142.0","60588","DH-016","18:50:30","","","","","","","","","","","","assessment 3","","1087","components/portraits/StimImgJonathanFraser.PNG","14","","","","","14","Jonathan Fraser","A",""
"","image-slider-response-modified","143","1784051","0.0-143.0","60588","DH-016","18:50:32","","","","","","","","","","","","assessment 4","","1168","components/portraits/StimImgMiguelAlves.PNG","0","","","","","0","Miguel Alves","A",""
"","image-slider-response-modified","144","1784693","0.0-144.0","60588","DH-016","18:50:32","","","","","","","","","","","","assessment 5","","637","components/portraits/StimImgFernandoAlves.PNG","0","","","","","0","Fernando Alves","A",""
"","image-slider-response-modified","145","1785619","0.0-145.0","60588","DH-016","18:50:33","","","","","","","","","","","","assessment 6","","922","components/portraits/StimImgSylviaSteinetz.PNG","0","","","","","0","Sylvia Steinetz","A",""
"","image-slider-response-modified","146","1786293","0.0-146.0","60588","DH-016","18:50:34","","","","","","","","","","","","assessment 7","","670","components/portraits/StimImgGraceFraser.PNG","95","","","","","95","Grace Fraser","A",""
"","html-keyboard-response","147","1787296","0.0-147.0","60588","DH-016","18:50:35","","","","","","","","","","","","","","null","[""<p style=\""font-size: 36px; width: 1200px; line-height: 40px;\"">Returning to the video...""]","null","","","","","","","",""
"","browser-check","148","1788295","0.0-148.0","60588","DH-016","18:50:36","1440","900","true","chrome","130.0.0","false","Mac OS","true","60.16","true","true","Browser_Check","","","","","","","","","","","",""
"","video-keyboard-response","149","1869697","0.0-149.0","60588","DH-016","18:51:57","","","","","","","","","","","","video 11","","null","[""components/stim/StimVid_Undoing1.mp4""]","null","","","","","","","",""
"","image-slider-response-modified","150","1880474","0.0-150.0","60588","DH-016","18:52:8","","","","","","","","","","","","assessment 0","","10773","components/portraits/StimImgElenaAlves.PNG","80","","","","","80","Elena Alves","A",""
"","image-slider-response-modified","151","1915298","0.0-151.0","60588","DH-016","18:52:43","","","","","","","","","","","","assessment 1","","34819","components/portraits/StimImgFranklinReinhardt.PNG","0","","","","","0","Franklin Reinhardt","A",""
"","image-slider-response-modified","152","1916127","0.0-152.0","60588","DH-016","18:52:44","","","","","","","","","","","","assessment 2","","825","components/portraits/StimImgHenryFraser.PNG","100","","","","","100","Henry Fraser","A",""
"","image-slider-response-modified","153","1922396","0.0-153.0","60588","DH-016","18:52:50","","","","","","","","","","","","assessment 3","","6265","components/portraits/StimImgJonathanFraser.PNG","30","","","","","14","Jonathan Fraser","A",""
"","image-slider-response-modified","154","1924440","0.0-154.0","60588","DH-016","18:52:52","","","","","","","","","","","","assessment 4","","2040","components/portraits/StimImgMiguelAlves.PNG","0","","","","","0","Miguel Alves","A",""
"","image-slider-response-modified","155","1925491","0.0-155.0","60588","DH-016","18:52:53","","","","","","","","","","","","assessment 5","","1048","components/portraits/StimImgFernandoAlves.PNG","0","","","","","0","Fernando Alves","A",""
"","image-slider-response-modified","156","1930844","0.0-156.0","60588","DH-016","18:52:58","","","","","","","","","","","","assessment 6","","5348","components/portraits/StimImgSylviaSteinetz.PNG","0","","","","","0","Sylvia Steinetz","A",""
"","image-slider-response-modified","157","1993824","0.0-157.0","60588","DH-016","18:54:1","","","","","","","","","","","","assessment 7","","62975","components/portraits/StimImgGraceFraser.PNG","95","","","","","95","Grace Fraser","A",""
"","html-keyboard-response","158","1994828","0.0-158.0","60588","DH-016","18:54:2","","","","","","","","","","","","","","null","[""<p style=\""font-size: 36px; width: 1200px; line-height: 40px;\"">Returning to the video...""]","null","","","","","","","",""
"","browser-check","159","1995828","0.0-159.0","60588","DH-016","18:54:3","1440","900","true","chrome","130.0.0","false","Mac OS","true","60.08","true","true","Browser_Check","","","","","","","","","","","",""
"","video-keyboard-response","160","2069218","0.0-160.0","60588","DH-016","18:55:17","","","","","","","","","","","","video 12","","null","[""components/stim/StimVid_Undoing1.mp4""]","null","","","","","","","",""
"","image-slider-response-modified","161","2073168","0.0-161.0","60588","DH-016","18:55:21","","","","","","","","","","","","assessment 0","","3945","components/portraits/StimImgElenaAlves.PNG","80","","","","","80","Elena Alves","A",""
"","image-slider-response-modified","162","2074527","0.0-162.0","60588","DH-016","18:55:22","","","","","","","","","","","","assessment 1","","1358","components/portraits/StimImgFranklinReinhardt.PNG","0","","","","","0","Franklin Reinhardt","A",""
"","image-slider-response-modified","163","2075369","0.0-163.0","60588","DH-016","18:55:23","","","","","","","","","","","","assessment 2","","838","components/portraits/StimImgHenryFraser.PNG","100","","","","","100","Henry Fraser","A",""
"","image-slider-response-modified","164","2077165","0.0-164.0","60588","DH-016","18:55:25","","","","","","","","","","","","assessment 3","","1793","components/portraits/StimImgJonathanFraser.PNG","30","","","","","30","Jonathan Fraser","A",""
"","image-slider-response-modified","165","2077758","0.0-165.0","60588","DH-016","18:55:25","","","","","","","","","","","","assessment 4","","589","components/portraits/StimImgMiguelAlves.PNG","0","","","","","0","Miguel Alves","A",""
"","image-slider-response-modified","166","2078315","0.0-166.0","60588","DH-016","18:55:26","","","","","","","","","","","","assessment 5","","554","components/portraits/StimImgFernandoAlves.PNG","0","","","","","0","Fernando Alves","A",""
"","image-slider-response-modified","167","2079123","0.0-167.0","60588","DH-016","18:55:27","","","","","","","","","","","","assessment 6","","804","components/portraits/StimImgSylviaSteinetz.PNG","0","","","","","0","Sylvia Steinetz","A",""
"","image-slider-response-modified","168","2085212","0.0-168.0","60588","DH-016","18:55:33","","","","","","","","","","","","assessment 7","","6085","components/portraits/StimImgGraceFraser.PNG","90","","","","","95","Grace Fraser","A",""
"","html-keyboard-response","169","2086216","0.0-169.0","60588","DH-016","18:55:34","","","","","","","","","","","","","","null","[""<p style=\""font-size: 36px; width: 1200px; line-height: 40px;\"">Returning to the video...""]","null","","","","","","","",""
"","browser-check","170","2087216","0.0-170.0","60588","DH-016","18:55:35","1440","900","true","chrome","130.0.0","false","Mac OS","true","60.1","true","true","Browser_Check","","","","","","","","","","","",""
"","video-keyboard-response","171","2190660","0.0-171.0","60588","DH-016","18:57:18","","","","","","","","","","","","video 13","","null","[""components/stim/StimVid_Undoing1.mp4""]","null","","","","","","","",""
"","image-slider-response-modified","172","2192825","0.0-172.0","60588","DH-016","18:57:20","","","","","","","","","","","","assessment 0","","2162","components/portraits/StimImgElenaAlves.PNG","80","","","","","80","Elena Alves","A",""
"","image-slider-response-modified","173","2193870","0.0-173.0","60588","DH-016","18:57:21","","","","","","","","","","","","assessment 1","","1040","components/portraits/StimImgFranklinReinhardt.PNG","0","","","","","0","Franklin Reinhardt","A",""
"","image-slider-response-modified","174","2194479","0.0-174.0","60588","DH-016","18:57:22","","","","","","","","","","","","assessment 2","","605","components/portraits/StimImgHenryFraser.PNG","100","","","","","100","Henry Fraser","A",""
"","image-slider-response-modified","175","2195250","0.0-175.0","60588","DH-016","18:57:23","","","","","","","","","","","","assessment 3","","766","components/portraits/StimImgJonathanFraser.PNG","30","","","","","30","Jonathan Fraser","A",""
"","image-slider-response-modified","176","2195643","0.0-176.0","60588","DH-016","18:57:23","","","","","","","","","","","","assessment 4","","390","components/portraits/StimImgMiguelAlves.PNG","0","","","","","0","Miguel Alves","A",""
"","image-slider-response-modified","177","2196051","0.0-177.0","60588","DH-016","18:57:24","","","","","","","","","","","","assessment 5","","403","components/portraits/StimImgFernandoAlves.PNG","0","","","","","0","Fernando Alves","A",""
"","image-slider-response-modified","178","2196275","0.0-178.0","60588","DH-016","18:57:24","","","","","","","","","","","","assessment 6","","219","components/portraits/StimImgSylviaSteinetz.PNG","0","","","","","0","Sylvia Steinetz","A",""
"","image-slider-response-modified","179","2197100","0.0-179.0","60588","DH-016","18:57:25","","","","","","","","","","","","assessment 7","","821","components/portraits/StimImgGraceFraser.PNG","90","","","","","90","Grace Fraser","A",""
"","html-keyboard-response","180","2198104","0.0-180.0","60588","DH-016","18:57:26","","","","","","","","","","","","","","null","[""<p style=\""font-size: 36px; width: 1200px; line-height: 40px;\"">Returning to the video...""]","null","","","","","","","",""
"","browser-check","181","2199116","0.0-181.0","60588","DH-016","18:57:27","1440","900","true","chrome","130.0.0","false","Mac OS","true","59.37","true","true","Browser_Check","","","","","","","","","","","",""
"","video-keyboard-response","182","2266412","0.0-182.0","60588","DH-016","18:58:34","","","","","","","","","","","","video 14","","null","[""components/stim/StimVid_Undoing1.mp4""]","null","","","","","","","",""
"","image-slider-response-modified","183","2271224","0.0-183.0","60588","DH-016","18:58:39","","","","","","","","","","","","assessment 0","","4807","components/portraits/StimImgElenaAlves.PNG","80","","","","","80","Elena Alves","A",""
"","image-slider-response-modified","184","2272230","0.0-184.0","60588","DH-016","18:58:40","","","","","","","","","","","","assessment 1","","1002","components/portraits/StimImgFranklinReinhardt.PNG","0","","","","","0","Franklin Reinhardt","A",""
"","image-slider-response-modified","185","2273022","0.0-185.0","60588","DH-016","18:58:41","","","","","","","","","","","","assessment 2","","788","components/portraits/StimImgHenryFraser.PNG","100","","","","","100","Henry Fraser","A",""
"","image-slider-response-modified","186","2274564","0.0-186.0","60588","DH-016","18:58:42","","","","","","","","","","","","assessment 3","","1538","components/portraits/StimImgJonathanFraser.PNG","30","","","","","30","Jonathan Fraser","A",""
"","image-slider-response-modified","187","2274789","0.0-187.0","60588","DH-016","18:58:42","","","","","","","","","","","","assessment 4","","221","components/portraits/StimImgMiguelAlves.PNG","0","","","","","0","Miguel Alves","A",""
"","image-slider-response-modified","188","2275230","0.0-188.0","60588","DH-016","18:58:43","","","","","","","","","","","","assessment 5","","437","components/portraits/StimImgFernandoAlves.PNG","0","","","","","0","Fernando Alves","A",""
"","image-slider-response-modified","189","2275756","0.0-189.0","60588","DH-016","18:58:43","","","","","","","","","","","","assessment 6","","522","components/portraits/StimImgSylviaSteinetz.PNG","0","","","","","0","Sylvia Steinetz","A",""
"","image-slider-response-modified","190","2276331","0.0-190.0","60588","DH-016","18:58:44","","","","","","","","","","","","assessment 7","","570","components/portraits/StimImgGraceFraser.PNG","90","","","","","90","Grace Fraser","A",""
"","html-keyboard-response","191","2277334","0.0-191.0","60588","DH-016","18:58:45","","","","","","","","","","","","","","null","[""<p style=\""font-size: 36px; width: 1200px; line-height: 40px;\"">Returning to the video...""]","null","","","","","","","",""
"","browser-check","192","2278351","0.0-192.0","60588","DH-016","18:58:46","1440","900","true","chrome","130.0.0","false","Mac OS","true","59.11","true","true","Browser_Check","","","","","","","","","","","",""
"","video-keyboard-response","193","2353635","0.0-193.0","60588","DH-016","19:0:1","","","","","","","","","","","","video 15","","null","[""components/stim/StimVid_Undoing1.mp4""]","null","","","","","","","",""
"","image-slider-response-modified","194","2355663","0.0-194.0","60588","DH-016","19:0:3","","","","","","","","","","","","assessment 0","","2025","components/portraits/StimImgElenaAlves.PNG","80","","","","","80","Elena Alves","A",""
"","image-slider-response-modified","195","2356224","0.0-195.0","60588","DH-016","19:0:4","","","","","","","","","","","","assessment 1","","556","components/portraits/StimImgFranklinReinhardt.PNG","0","","","","","0","Franklin Reinhardt","A",""
"","image-slider-response-modified","196","2357044","0.0-196.0","60588","DH-016","19:0:5","","","","","","","","","","","","assessment 2","","818","components/portraits/StimImgHenryFraser.PNG","100","","","","","100","Henry Fraser","A",""
"","image-slider-response-modified","197","2358056","0.0-197.0","60588","DH-016","19:0:6","","","","","","","","","","","","assessment 3","","1008","components/portraits/StimImgJonathanFraser.PNG","30","","","","","30","Jonathan Fraser","A",""
"","image-slider-response-modified","198","2358245","0.0-198.0","60588","DH-016","19:0:6","","","","","","","","","","","","assessment 4","","185","components/portraits/StimImgMiguelAlves.PNG","0","","","","","0","Miguel Alves","A",""
"","image-slider-response-modified","199","2358416","0.0-199.0","60588","DH-016","19:0:6","","","","","","","","","","","","assessment 5","","168","components/portraits/StimImgFernandoAlves.PNG","0","","","","","0","Fernando Alves","A",""
"","image-slider-response-modified","200","2358605","0.0-200.0","60588","DH-016","19:0:6","","","","","","","","","","","","assessment 6","","185","components/portraits/StimImgSylviaSteinetz.PNG","0","","","","","0","Sylvia Steinetz","A",""
"","image-slider-response-modified","201","2359272","0.0-201.0","60588","DH-016","19:0:7","","","","","","","","","","","","assessment 7","","662","components/portraits/StimImgGraceFraser.PNG","90","","","","","90","Grace Fraser","A",""
"","html-keyboard-response","202","2360275","0.0-202.0","60588","DH-016","19:0:8","","","","","","","","","","","","","","null","[""<p style=\""font-size: 36px; width: 1200px; line-height: 40px;\"">Returning to the video...""]","null","","","","","","","",""
"","browser-check","203","2361287","0.0-203.0","60588","DH-016","19:0:9","1440","900","true","chrome","130.0.0","false","Mac OS","true","59.42","true","true","Browser_Check","","","","","","","","","","","",""
"","video-keyboard-response","204","2444480","0.0-204.0","60588","DH-016","19:1:32","","","","","","","","","","","","video 16","","null","[""components/stim/StimVid_Undoing1.mp4""]","null","","","","","","","",""
"","image-slider-response-modified","205","2446231","0.0-205.0","60588","DH-016","19:1:34","","","","","","","","","","","","assessment 0","","1747","components/portraits/StimImgElenaAlves.PNG","80","","","","","80","Elena Alves","A",""
"","image-slider-response-modified","206","2447937","0.0-206.0","60588","DH-016","19:1:35","","","","","","","","","","","","assessment 1","","1703","components/portraits/StimImgFranklinReinhardt.PNG","0","","","","","0","Franklin Reinhardt","A",""
"","image-slider-response-modified","207","2449917","0.0-207.0","60588","DH-016","19:1:37","","","","","","","","","","","","assessment 2","","1977","components/portraits/StimImgHenryFraser.PNG","100","","","","","100","Henry Fraser","A",""
"","image-slider-response-modified","208","2452840","0.0-208.0","60588","DH-016","19:1:40","","","","","","","","","","","","assessment 3","","2920","components/portraits/StimImgJonathanFraser.PNG","30","","","","","30","Jonathan Fraser","A",""
"","image-slider-response-modified","209","2453735","0.0-209.0","60588","DH-016","19:1:41","","","","","","","","","","","","assessment 4","","891","components/portraits/StimImgMiguelAlves.PNG","0","","","","","0","Miguel Alves","A",""
"","image-slider-response-modified","210","2455144","0.0-210.0","60588","DH-016","19:1:43","","","","","","","","","","","","assessment 5","","1405","components/portraits/StimImgFernandoAlves.PNG","0","","","","","0","Fernando Alves","A",""
"","image-slider-response-modified","211","2458689","0.0-211.0","60588","DH-016","19:1:46","","","","","","","","","","","","assessment 6","","3541","components/portraits/StimImgSylviaSteinetz.PNG","0","","","","","0","Sylvia Steinetz","A",""
"","image-slider-response-modified","212","2459530","0.0-212.0","60588","DH-016","19:1:47","","","","","","","","","","","","assessment 7","","837","components/portraits/StimImgGraceFraser.PNG","90","","","","","90","Grace Fraser","A",""
"","html-keyboard-response","213","2460533","0.0-213.0","60588","DH-016","19:1:48","","","","","","","","","","","","","","null","[""<p style=\""font-size: 36px; width: 1200px; line-height: 40px;\"">Returning to the video...""]","null","","","","","","","",""
"","browser-check","214","2461533","0.0-214.0","60588","DH-016","19:1:49","1440","900","true","chrome","130.0.0","false","Mac OS","true","60.13","true","true","Browser_Check","","","","","","","","","","","",""
"","preload","215","2511345","0.0-215.0","60588","DH-016","19:2:39","","","","","","","","","","","","Preload","true","","","","false","[]","[]","[]","","","",""
"","video-keyboard-response","216","2527673","0.0-216.0","60588","DH-016","","","","","","","","","","","","","video 17","","null","[""components/stim/StimVid_Undoing1.mp4""]","null","","","","","","","",""
"","video-keyboard-response","217","2592848","0.0-217.0","60588","DH-016","","","","","","","","","","","","","video 18","","null","[""components/stim/StimVid_Undoing2.mp4""]","null","","","","","","","",""
"","image-slider-response-modified","218","2594606","0.0-218.0","60588","DH-016","19:4:2","","","","","","","","","","","","assessment 0","","1754","components/portraits/StimImgElenaAlves.PNG","80","","","","","80","Elena Alves","A",""
"","image-slider-response-modified","219","2594814","0.0-219.0","60588","DH-016","19:4:2","","","","","","","","","","","","assessment 1","","203","components/portraits/StimImgFranklinReinhardt.PNG","0","","","","","0","Franklin Reinhardt","A",""
"","image-slider-response-modified","220","2595022","0.0-220.0","60588","DH-016","19:4:3","","","","","","","","","","","","assessment 2","","203","components/portraits/StimImgHenryFraser.PNG","100","","","","","100","Henry Fraser","A",""
"","image-slider-response-modified","221","2601311","0.0-221.0","60588","DH-016","19:4:9","","","","","","","","","","","","assessment 3","","6286","components/portraits/StimImgJonathanFraser.PNG","54","","","","","30","Jonathan Fraser","A",""
"","image-slider-response-modified","222","2601825","0.0-222.0","60588","DH-016","19:4:9","","","","","","","","","","","","assessment 4","","509","components/portraits/StimImgMiguelAlves.PNG","0","","","","","0","Miguel Alves","A",""
"","image-slider-response-modified","223","2602065","0.0-223.0","60588","DH-016","19:4:10","","","","","","","","","","","","assessment 5","","236","components/portraits/StimImgFernandoAlves.PNG","0","","","","","0","Fernando Alves","A",""
"","image-slider-response-modified","224","2602307","0.0-224.0","60588","DH-016","19:4:10","","","","","","","","","","","","assessment 6","","238","components/portraits/StimImgSylviaSteinetz.PNG","0","","","","","0","Sylvia Steinetz","A",""
"","image-slider-response-modified","225","2603297","0.0-225.0","60588","DH-016","19:4:11","","","","","","","","","","","","assessment 7","","986","components/portraits/StimImgGraceFraser.PNG","90","","","","","90","Grace Fraser","A",""
"","html-keyboard-response","226","2604300","0.0-226.0","60588","DH-016","19:4:12","","","","","","","","","","","","","","null","[""<p style=\""font-size: 36px; width: 1200px; line-height: 40px;\"">Returning to the video...""]","null","","","","","","","",""
"","browser-check","227","2605321","0.0-227.0","60588","DH-016","19:4:13","1440","900","true","chrome","130.0.0","false","Mac OS","true","58.9","true","true","Browser_Check","","","","","","","","","","","",""
"","video-keyboard-response","228","2672627","0.0-228.0","60588","DH-016","19:5:20","","","","","","","","","","","","video18","","null","[""components/stim/StimVid_Undoing2.mp4""]","null","","","","","","","",""
"","image-slider-response-modified","229","2674232","0.0-229.0","60588","DH-016","19:5:22","","","","","","","","","","","","assessment 0","","1601","components/portraits/StimImgElenaAlves.PNG","80","","","","","80","Elena Alves","A",""
"","image-slider-response-modified","230","2674432","0.0-230.0","60588","DH-016","19:5:22","","","","","","","","","","","","assessment 1","","196","components/portraits/StimImgFranklinReinhardt.PNG","0","","","","","0","Franklin Reinhardt","A",""
"","image-slider-response-modified","231","2674599","0.0-231.0","60588","DH-016","19:5:22","","","","","","","","","","","","assessment 2","","163","components/portraits/StimImgHenryFraser.PNG","100","","","","","100","Henry Fraser","A",""
"","image-slider-response-modified","232","2674973","0.0-232.0","60588","DH-016","19:5:22","","","","","","","","","","","","assessment 3","","370","components/portraits/StimImgJonathanFraser.PNG","54","","","","","54","Jonathan Fraser","A",""
"","image-slider-response-modified","233","2675599","0.0-233.0","60588","DH-016","19:5:23","","","","","","","","","","","","assessment 4","","622","components/portraits/StimImgMiguelAlves.PNG","0","","","","","0","Miguel Alves","A",""
"","image-slider-response-modified","234","2675802","0.0-234.0","60588","DH-016","19:5:23","","","","","","","","","","","","assessment 5","","199","components/portraits/StimImgFernandoAlves.PNG","0","","","","","0","Fernando Alves","A",""
"","image-slider-response-modified","235","2676411","0.0-235.0","60588","DH-016","19:5:24","","","","","","","","","","","","assessment 6","","606","components/portraits/StimImgSylviaSteinetz.PNG","0","","","","","0","Sylvia Steinetz","A",""
"","image-slider-response-modified","236","2676952","0.0-236.0","60588","DH-016","19:5:24","","","","","","","","","","","","assessment 7","","536","components/portraits/StimImgGraceFraser.PNG","90","","","","","90","Grace Fraser","A",""
"","html-keyboard-response","237","2677955","0.0-237.0","60588","DH-016","19:5:25","","","","","","","","","","","","","","null","[""<p style=\""font-size: 36px; width: 1200px; line-height: 40px;\"">Returning to the video...""]","null","","","","","","","",""
"","browser-check","238","2678957","0.0-238.0","60588","DH-016","19:5:26","1440","900","true","chrome","130.0.0","false","Mac OS","true","60.02","true","true","Browser_Check","","","","","","","","","","","",""
"","video-keyboard-response","239","2794329","0.0-239.0","60588","DH-016","19:7:22","","","","","","","","","","","","video19","","null","[""components/stim/StimVid_Undoing2.mp4""]","null","","","","","","","",""
"","image-slider-response-modified","240","2796615","0.0-240.0","60588","DH-016","19:7:24","","","","","","","","","","","","assessment 0","","2282","components/portraits/StimImgElenaAlves.PNG","80","","","","","80","Elena Alves","A",""
"","image-slider-response-modified","241","2796924","0.0-241.0","60588","DH-016","19:7:24","","","","","","","","","","","","assessment 1","","305","components/portraits/StimImgFranklinReinhardt.PNG","0","","","","","0","Franklin Reinhardt","A",""
"","image-slider-response-modified","242","2797532","0.0-242.0","60588","DH-016","19:7:25","","","","","","","","","","","","assessment 2","","606","components/portraits/StimImgHenryFraser.PNG","100","","","","","100","Henry Fraser","A",""
"","image-slider-response-modified","243","2801106","0.0-243.0","60588","DH-016","19:7:29","","","","","","","","","","","","assessment 3","","3570","components/portraits/StimImgJonathanFraser.PNG","54","","","","","54","Jonathan Fraser","A",""
"","image-slider-response-modified","244","2801830","0.0-244.0","60588","DH-016","19:7:29","","","","","","","","","","","","assessment 4","","720","components/portraits/StimImgMiguelAlves.PNG","0","","","","","0","Miguel Alves","A",""
"","image-slider-response-modified","245","2802338","0.0-245.0","60588","DH-016","19:7:30","","","","","","","","","","","","assessment 5","","504","components/portraits/StimImgFernandoAlves.PNG","0","","","","","0","Fernando Alves","A",""
"","image-slider-response-modified","246","2802796","0.0-246.0","60588","DH-016","19:7:30","","","","","","","","","","","","assessment 6","","454","components/portraits/StimImgSylviaSteinetz.PNG","0","","","","","0","Sylvia Steinetz","A",""
"","image-slider-response-modified","247","2803521","0.0-247.0","60588","DH-016","19:7:31","","","","","","","","","","","","assessment 7","","720","components/portraits/StimImgGraceFraser.PNG","90","","","","","90","Grace Fraser","A",""
"","html-keyboard-response","248","2804524","0.0-248.0","60588","DH-016","19:7:32","","","","","","","","","","","","","","null","[""<p style=\""font-size: 36px; width: 1200px; line-height: 40px;\"">Returning to the video...""]","null","","","","","","","",""
"","browser-check","249","2805530","0.0-249.0","60588","DH-016","19:7:33","1440","900","true","chrome","130.0.0","false","Mac OS","true","59.74","true","true","Browser_Check","","","","","","","","","","","",""
"","video-keyboard-response","250","2872828","0.0-250.0","60588","DH-016","19:8:40","","","","","","","","","","","","video20","","null","[""components/stim/StimVid_Undoing2.mp4""]","null","","","","","","","",""
"","image-slider-response-modified","251","2874990","0.0-251.0","60588","DH-016","19:8:42","","","","","","","","","","","","assessment 0","","2158","components/portraits/StimImgElenaAlves.PNG","80","","","","","80","Elena Alves","A",""
"","image-slider-response-modified","252","2875551","0.0-252.0","60588","DH-016","19:8:43","","","","","","","","","","","","assessment 1","","558","components/portraits/StimImgFranklinReinhardt.PNG","0","","","","","0","Franklin Reinhardt","A",""
"","image-slider-response-modified","253","2876894","0.0-253.0","60588","DH-016","19:8:44","","","","","","","","","","","","assessment 2","","1340","components/portraits/StimImgHenryFraser.PNG","100","","","","","100","Henry Fraser","A",""
"","image-slider-response-modified","254","2877188","0.0-254.0","60588","DH-016","19:8:45","","","","","","","","","","","","assessment 3","","292","components/portraits/StimImgJonathanFraser.PNG","54","","","","","54","Jonathan Fraser","A",""
"","image-slider-response-modified","255","2877499","0.0-255.0","60588","DH-016","19:8:45","","","","","","","","","","","","assessment 4","","306","components/portraits/StimImgMiguelAlves.PNG","0","","","","","0","Miguel Alves","A",""
"","image-slider-response-modified","256","2878724","0.0-256.0","60588","DH-016","19:8:46","","","","","","","","","","","","assessment 5","","1221","components/portraits/StimImgFernandoAlves.PNG","0","","","","","0","Fernando Alves","A",""
"","image-slider-response-modified","257","2879232","0.0-257.0","60588","DH-016","19:8:47","","","","","","","","","","","","assessment 6","","503","components/portraits/StimImgSylviaSteinetz.PNG","0","","","","","0","Sylvia Steinetz","A",""
"","image-slider-response-modified","258","2879941","0.0-258.0","60588","DH-016","19:8:47","","","","","","","","","","","","assessment 7","","704","components/portraits/StimImgGraceFraser.PNG","90","","","","","90","Grace Fraser","A",""
"","html-keyboard-response","259","2880944","0.0-259.0","60588","DH-016","19:8:48","","","","","","","","","","","","","","null","[""<p style=\""font-size: 36px; width: 1200px; line-height: 40px;\"">Returning to the video...""]","null","","","","","","","",""
"","browser-check","260","2881963","0.0-260.0","60588","DH-016","19:8:49","1440","900","true","chrome","130.0.0","false","Mac OS","true","58.93","true","true","Browser_Check","","","","","","","","","","","",""
"","video-keyboard-response","261","2969216","0.0-261.0","60588","DH-016","19:10:17","","","","","","","","","","","","video21","","null","[""components/stim/StimVid_Undoing2.mp4""]","null","","","","","","","",""
"","image-slider-response-modified","262","2971092","0.0-262.0","60588","DH-016","19:10:19","","","","","","","","","","","","assessment 0","","1873","components/portraits/StimImgElenaAlves.PNG","80","","","","","80","Elena Alves","A",""
"","image-slider-response-modified","263","2971333","0.0-263.0","60588","DH-016","19:10:19","","","","","","","","","","","","assessment 1","","237","components/portraits/StimImgFranklinReinhardt.PNG","0","","","","","0","Franklin Reinhardt","A",""
"","image-slider-response-modified","264","2971593","0.0-264.0","60588","DH-016","19:10:19","","","","","","","","","","","","assessment 2","","256","components/portraits/StimImgHenryFraser.PNG","100","","","","","100","Henry Fraser","A",""
"","image-slider-response-modified","265","2971796","0.0-265.0","60588","DH-016","19:10:19","","","","","","","","","","","","assessment 3","","199","components/portraits/StimImgJonathanFraser.PNG","54","","","","","54","Jonathan Fraser","A",""
"","image-slider-response-modified","266","2972421","0.0-266.0","60588","DH-016","19:10:20","","","","","","","","","","","","assessment 4","","623","components/portraits/StimImgMiguelAlves.PNG","0","","","","","0","Miguel Alves","A",""
"","image-slider-response-modified","267","2973078","0.0-267.0","60588","DH-016","19:10:21","","","","","","","","","","","","assessment 5","","653","components/portraits/StimImgFernandoAlves.PNG","0","","","","","0","Fernando Alves","A",""
"","image-slider-response-modified","268","2973802","0.0-268.0","60588","DH-016","19:10:21","","","","","","","","","","","","assessment 6","","720","components/portraits/StimImgSylviaSteinetz.PNG","0","","","","","0","Sylvia Steinetz","A",""
"","image-slider-response-modified","269","2974444","0.0-269.0","60588","DH-016","19:10:22","","","","","","","","","","","","assessment 7","","637","components/portraits/StimImgGraceFraser.PNG","90","","","","","90","Grace Fraser","A",""
"","html-keyboard-response","270","2975447","0.0-270.0","60588","DH-016","19:10:23","","","","","","","","","","","","","","null","[""<p style=\""font-size: 36px; width: 1200px; line-height: 40px;\"">Returning to the video...""]","null","","","","","","","",""
"","browser-check","271","2976458","0.0-271.0","60588","DH-016","19:10:24","1440","900","true","chrome","130.0.0","false","Mac OS","true","59.45","true","true","Browser_Check","","","","","","","","","","","",""
"","video-keyboard-response","272","3043776","0.0-272.0","60588","DH-016","19:11:31","","","","","","","","","","","","video22","","null","[""components/stim/StimVid_Undoing2.mp4""]","null","","","","","","","",""
"","image-slider-response-modified","273","3045827","0.0-273.0","60588","DH-016","19:11:33","","","","","","","","","","","","assessment 0","","2047","components/portraits/StimImgElenaAlves.PNG","80","","","","","80","Elena Alves","A",""
"","image-slider-response-modified","274","3046777","0.0-274.0","60588","DH-016","19:11:34","","","","","","","","","","","","assessment 1","","945","components/portraits/StimImgFranklinReinhardt.PNG","0","","","","","0","Franklin Reinhardt","A",""
"","image-slider-response-modified","275","3047420","0.0-275.0","60588","DH-016","19:11:35","","","","","","","","","","","","assessment 2","","640","components/portraits/StimImgHenryFraser.PNG","100","","","","","100","Henry Fraser","A",""
"","image-slider-response-modified","276","3047860","0.0-276.0","60588","DH-016","19:11:35","","","","","","","","","","","","assessment 3","","437","components/portraits/StimImgJonathanFraser.PNG","54","","","","","54","Jonathan Fraser","A",""
"","image-slider-response-modified","277","3048119","0.0-277.0","60588","DH-016","19:11:36","","","","","","","","","","","","assessment 4","","257","components/portraits/StimImgMiguelAlves.PNG","0","","","","","0","Miguel Alves","A",""
"","image-slider-response-modified","278","3048340","0.0-278.0","60588","DH-016","19:11:36","","","","","","","","","","","","assessment 5","","217","components/portraits/StimImgFernandoAlves.PNG","0","","","","","0","Fernando Alves","A",""
"","image-slider-response-modified","279","3049348","0.0-279.0","60588","DH-016","19:11:37","","","","","","","","","","","","assessment 6","","1003","components/portraits/StimImgSylviaSteinetz.PNG","0","","","","","0","Sylvia Steinetz","A",""
"","image-slider-response-modified","280","3049939","0.0-280.0","60588","DH-016","19:11:37","","","","","","","","","","","","assessment 7","","587","components/portraits/StimImgGraceFraser.PNG","90","","","","","90","Grace Fraser","A",""
"","html-keyboard-response","281","3050942","0.0-281.0","60588","DH-016","19:11:38","","","","","","","","","","","","","","null","[""<p style=\""font-size: 36px; width: 1200px; line-height: 40px;\"">Returning to the video...""]","null","","","","","","","",""
"","browser-check","282","3051969","0.0-282.0","60588","DH-016","19:11:39","1440","900","true","chrome","130.0.0","false","Mac OS","true","58.48","true","true","Browser_Check","","","","","","","","","","","",""
"","video-keyboard-response","283","3121385","0.0-283.0","60588","DH-016","19:12:49","","","","","","","","","","","","video23","","null","[""components/stim/StimVid_Undoing2.mp4""]","null","","","","","","","",""
"","image-slider-response-modified","284","3123527","0.0-284.0","60588","DH-016","19:12:51","","","","","","","","","","","","assessment 0","","2138","components/portraits/StimImgElenaAlves.PNG","80","","","","","80","Elena Alves","A",""
"","image-slider-response-modified","285","3125292","0.0-285.0","60588","DH-016","19:12:53","","","","","","","","","","","","assessment 1","","1761","components/portraits/StimImgFranklinReinhardt.PNG","0","","","","","0","Franklin Reinhardt","A",""
"","image-slider-response-modified","286","3126086","0.0-286.0","60588","DH-016","19:12:54","","","","","","","","","","","","assessment 2","","789","components/portraits/StimImgHenryFraser.PNG","100","","","","","100","Henry Fraser","A",""
"","image-slider-response-modified","287","3126610","0.0-287.0","60588","DH-016","19:12:54","","","","","","","","","","","","assessment 3","","519","components/portraits/StimImgJonathanFraser.PNG","54","","","","","54","Jonathan Fraser","A",""
"","image-slider-response-modified","288","3127100","0.0-288.0","60588","DH-016","19:12:55","","","","","","","","","","","","assessment 4","","486","components/portraits/StimImgMiguelAlves.PNG","0","","","","","0","Miguel Alves","A",""
"","image-slider-response-modified","289","3127558","0.0-289.0","60588","DH-016","19:12:55","","","","","","","","","","","","assessment 5","","453","components/portraits/StimImgFernandoAlves.PNG","0","","","","","0","Fernando Alves","A",""
"","image-slider-response-modified","290","3128098","0.0-290.0","60588","DH-016","19:12:56","","","","","","","","","","","","assessment 6","","536","components/portraits/StimImgSylviaSteinetz.PNG","0","","","","","0","Sylvia Steinetz","A",""
"","image-slider-response-modified","291","3128657","0.0-291.0","60588","DH-016","19:12:56","","","","","","","","","","","","assessment 7","","556","components/portraits/StimImgGraceFraser.PNG","90","","","","","90","Grace Fraser","A",""
"","html-keyboard-response","292","3129659","0.0-292.0","60588","DH-016","19:12:57","","","","","","","","","","","","","","null","[""<p style=\""font-size: 36px; width: 1200px; line-height: 40px;\"">Returning to the video...""]","null","","","","","","","",""
"","browser-check","293","3130664","0.0-293.0","60588","DH-016","19:12:58","1440","900","true","chrome","130.0.0","false","Mac OS","true","59.85","true","true","Browser_Check","","","","","","","","","","","",""
"","video-keyboard-response","294","3227962","0.0-294.0","60588","DH-016","19:14:35","","","","","","","","","","","","video24","","null","[""components/stim/StimVid_Undoing2.mp4""]","null","","","","","","","",""
"","image-slider-response-modified","295","3230722","0.0-295.0","60588","DH-016","19:14:38","","","","","","","","","","","","assessment 0","","2756","components/portraits/StimImgElenaAlves.PNG","80","","","","","80","Elena Alves","A",""
"","image-slider-response-modified","296","3233234","0.0-296.0","60588","DH-016","19:14:41","","","","","","","","","","","","assessment 1","","2510","components/portraits/StimImgFranklinReinhardt.PNG","0","","","","","0","Franklin Reinhardt","A",""
"","image-slider-response-modified","297","3234026","0.0-297.0","60588","DH-016","19:14:42","","","","","","","","","","","","assessment 2","","788","components/portraits/StimImgHenryFraser.PNG","100","","","","","100","Henry Fraser","A",""
"","image-slider-response-modified","298","3241033","0.0-298.0","60588","DH-016","19:14:49","","","","","","","","","","","","assessment 3","","7003","components/portraits/StimImgJonathanFraser.PNG","70","","","","","54","Jonathan Fraser","A",""
"","image-slider-response-modified","299","3241891","0.0-299.0","60588","DH-016","19:14:49","","","","","","","","","","","","assessment 4","","854","components/portraits/StimImgMiguelAlves.PNG","0","","","","","0","Miguel Alves","A",""
"","image-slider-response-modified","300","3243189","0.0-300.0","60588","DH-016","19:14:51","","","","","","","","","","","","assessment 5","","1294","components/portraits/StimImgFernandoAlves.PNG","0","","","","","0","Fernando Alves","A",""
"","image-slider-response-modified","301","3243396","0.0-301.0","60588","DH-016","19:14:51","","","","","","","","","","","","assessment 6","","204","components/portraits/StimImgSylviaSteinetz.PNG","0","","","","","0","Sylvia Steinetz","A",""
"","image-slider-response-modified","302","3244354","0.0-302.0","60588","DH-016","19:14:52","","","","","","","","","","","","assessment 7","","953","components/portraits/StimImgGraceFraser.PNG","90","","","","","90","Grace Fraser","A",""
"","html-keyboard-response","303","3245357","0.0-303.0","60588","DH-016","19:14:53","","","","","","","","","","","","","","null","[""<p style=\""font-size: 36px; width: 1200px; line-height: 40px;\"">Returning to the video...""]","null","","","","","","","",""
"","browser-check","304","3246357","0.0-304.0","60588","DH-016","19:14:54","1440","900","true","chrome","130.0.0","false","Mac OS","true","60.13","true","true","Browser_Check","","","","","","","","","","","",""
"","video-keyboard-response","305","3317632","0.0-305.0","60588","DH-016","19:16:5","","","","","","","","","","","","video25","","null","[""components/stim/StimVid_Undoing2.mp4""]","null","","","","","","","",""
"","image-slider-response-modified","306","3319862","0.0-306.0","60588","DH-016","19:16:7","","","","","","","","","","","","assessment 0","","2226","components/portraits/StimImgElenaAlves.PNG","80","","","","","80","Elena Alves","A",""
"","image-slider-response-modified","307","3320286","0.0-307.0","60588","DH-016","19:16:8","","","","","","","","","","","","assessment 1","","420","components/portraits/StimImgFranklinReinhardt.PNG","0","","","","","0","Franklin Reinhardt","A",""
"","image-slider-response-modified","308","3320629","0.0-308.0","60588","DH-016","19:16:8","","","","","","","","","","","","assessment 2","","341","components/portraits/StimImgHenryFraser.PNG","100","","","","","100","Henry Fraser","A",""
"","image-slider-response-modified","309","3320905","0.0-309.0","60588","DH-016","19:16:8","","","","","","","","","","","","assessment 3","","272","components/portraits/StimImgJonathanFraser.PNG","70","","","","","70","Jonathan Fraser","A",""
"","image-slider-response-modified","310","3321127","0.0-310.0","60588","DH-016","19:16:9","","","","","","","","","","","","assessment 4","","218","components/portraits/StimImgMiguelAlves.PNG","0","","","","","0","Miguel Alves","A",""
"","image-slider-response-modified","311","3321265","0.0-311.0","60588","DH-016","19:16:9","","","","","","","","","","","","assessment 5","","133","components/portraits/StimImgFernandoAlves.PNG","0","","","","","0","Fernando Alves","A",""
"","image-slider-response-modified","312","3321472","0.0-312.0","60588","DH-016","19:16:9","","","","","","","","","","","","assessment 6","","203","components/portraits/StimImgSylviaSteinetz.PNG","0","","","","","0","Sylvia Steinetz","A",""
"","image-slider-response-modified","313","3321646","0.0-313.0","60588","DH-016","19:16:9","","","","","","","","","","","","assessment 7","","170","components/portraits/StimImgGraceFraser.PNG","90","","","","","90","Grace Fraser","A",""
"","html-keyboard-response","314","3322649","0.0-314.0","60588","DH-016","19:16:10","","","","","","","","","","","","","","null","[""<p style=\""font-size: 36px; width: 1200px; line-height: 40px;\"">Returning to the video...""]","null","","","","","","","",""
"","browser-check","315","3323651","0.0-315.0","60588","DH-016","19:16:11","1440","900","true","chrome","130.0.0","false","Mac OS","true","60.01","true","true","Browser_Check","","","","","","","","","","","",""
"","video-keyboard-response","316","3394973","0.0-316.0","60588","DH-016","19:17:22","","","","","","","","","","","","video26","","null","[""components/stim/StimVid_Undoing2.mp4""]","null","","","","","","","",""
"","image-slider-response-modified","317","3396949","0.0-317.0","60588","DH-016","19:17:24","","","","","","","","","","","","assessment 0","","1972","components/portraits/StimImgElenaAlves.PNG","80","","","","","80","Elena Alves","A",""
"","image-slider-response-modified","318","3397157","0.0-318.0","60588","DH-016","19:17:25","","","","","","","","","","","","assessment 1","","203","components/portraits/StimImgFranklinReinhardt.PNG","0","","","","","0","Franklin Reinhardt","A",""
"","image-slider-response-modified","319","3397346","0.0-319.0","60588","DH-016","19:17:25","","","","","","","","","","","","assessment 2","","185","components/portraits/StimImgHenryFraser.PNG","100","","","","","100","Henry Fraser","A",""
"","image-slider-response-modified","320","3397820","0.0-320.0","60588","DH-016","19:17:25","","","","","","","","","","","","assessment 3","","470","components/portraits/StimImgJonathanFraser.PNG","70","","","","","70","Jonathan Fraser","A",""
"","image-slider-response-modified","321","3398629","0.0-321.0","60588","DH-016","19:17:26","","","","","","","","","","","","assessment 4","","806","components/portraits/StimImgMiguelAlves.PNG","0","","","","","0","Miguel Alves","A",""
"","image-slider-response-modified","322","3398818","0.0-322.0","60588","DH-016","19:17:26","","","","","","","","","","","","assessment 5","","185","components/portraits/StimImgFernandoAlves.PNG","0","","","","","0","Fernando Alves","A",""
"","image-slider-response-modified","323","3399364","0.0-323.0","60588","DH-016","19:17:27","","","","","","","","","","","","assessment 6","","541","components/portraits/StimImgSylviaSteinetz.PNG","0","","","","","0","Sylvia Steinetz","A",""
"","image-slider-response-modified","324","3399938","0.0-324.0","60588","DH-016","19:17:27","","","","","","","","","","","","assessment 7","","570","components/portraits/StimImgGraceFraser.PNG","90","","","","","90","Grace Fraser","A",""
"","html-keyboard-response","325","3400941","0.0-325.0","60588","DH-016","19:17:28","","","","","","","","","","","","","","null","[""<p style=\""font-size: 36px; width: 1200px; line-height: 40px;\"">Returning to the video...""]","null","","","","","","","",""
"","browser-check","326","3401943","0.0-326.0","60588","DH-016","19:17:29","1440","900","true","chrome","130.0.0","false","Mac OS","true","60.01","true","true","Browser_Check","","","","","","","","","","","",""
"","video-keyboard-response","327","3503222","0.0-327.0","60588","DH-016","19:19:11","","","","","","","","","","","","video27","","null","[""components/stim/StimVid_Undoing2.mp4""]","null","","","","","","","",""
"","image-slider-response-modified","328","3505155","0.0-328.0","60588","DH-016","19:19:13","","","","","","","","","","","","assessment 0","","1929","components/portraits/StimImgElenaAlves.PNG","80","","","","","80","Elena Alves","A",""
"","image-slider-response-modified","329","3505861","0.0-329.0","60588","DH-016","19:19:13","","","","","","","","","","","","assessment 1","","705","components/portraits/StimImgFranklinReinhardt.PNG","0","","","","","0","Franklin Reinhardt","A",""
"","image-slider-response-modified","330","3508254","0.0-330.0","60588","DH-016","19:19:16","","","","","","","","","","","","assessment 2","","2391","components/portraits/StimImgHenryFraser.PNG","100","","","","","100","Henry Fraser","A",""
"","image-slider-response-modified","331","3508895","0.0-331.0","60588","DH-016","19:19:16","","","","","","","","","","","","assessment 3","","637","components/portraits/StimImgJonathanFraser.PNG","70","","","","","70","Jonathan Fraser","A",""
"","image-slider-response-modified","332","3509670","0.0-332.0","60588","DH-016","19:19:17","","","","","","","","","","","","assessment 4","","771","components/portraits/StimImgMiguelAlves.PNG","0","","","","","0","Miguel Alves","A",""
"","image-slider-response-modified","333","3510679","0.0-333.0","60588","DH-016","19:19:18","","","","","","","","","","","","assessment 5","","1006","components/portraits/StimImgFernandoAlves.PNG","0","","","","","0","Fernando Alves","A",""
"","image-slider-response-modified","334","3511323","0.0-334.0","60588","DH-016","19:19:19","","","","","","","","","","","","assessment 6","","640","components/portraits/StimImgSylviaSteinetz.PNG","0","","","","","0","Sylvia Steinetz","A",""
"","image-slider-response-modified","335","3511997","0.0-335.0","60588","DH-016","19:19:20","","","","","","","","","","","","assessment 7","","670","components/portraits/StimImgGraceFraser.PNG","90","","","","","90","Grace Fraser","A",""
"","html-keyboard-response","336","3513001","0.0-336.0","60588","DH-016","19:19:21","","","","","","","","","","","","","","null","[""<p style=\""font-size: 36px; width: 1200px; line-height: 40px;\"">Returning to the video...""]","null","","","","","","","",""
"","browser-check","337","3514007","0.0-337.0","60588","DH-016","19:19:22","1440","900","true","chrome","130.0.0","false","Mac OS","true","59.71","true","true","Browser_Check","","","","","","","","","","","",""
"","video-keyboard-response","338","3627235","0.0-338.0","60588","DH-016","19:21:15","","","","","","","","","","","","video28","","null","[""components/stim/StimVid_Undoing2.mp4""]","null","","","","","","","",""
"","image-slider-response-modified","339","3633740","0.0-339.0","60588","DH-016","19:21:21","","","","","","","","","","","","assessment 0","","6501","components/portraits/StimImgElenaAlves.PNG","80","","","","","80","Elena Alves","A",""
"","image-slider-response-modified","340","3635168","0.0-340.0","60588","DH-016","19:21:23","","","","","","","","","","","","assessment 1","","1425","components/portraits/StimImgFranklinReinhardt.PNG","0","","","","","0","Franklin Reinhardt","A",""
"","image-slider-response-modified","341","3636310","0.0-341.0","60588","DH-016","19:21:24","","","","","","","","","","","","assessment 2","","1138","components/portraits/StimImgHenryFraser.PNG","100","","","","","100","Henry Fraser","A",""
"","image-slider-response-modified","342","3637419","0.0-342.0","60588","DH-016","19:21:25","","","","","","","","","","","","assessment 3","","1105","components/portraits/StimImgJonathanFraser.PNG","70","","","","","70","Jonathan Fraser","A",""
"","image-slider-response-modified","343","3638210","0.0-343.0","60588","DH-016","19:21:26","","","","","","","","","","","","assessment 4","","787","components/portraits/StimImgMiguelAlves.PNG","0","","","","","0","Miguel Alves","A",""
"","image-slider-response-modified","344","3643503","0.0-344.0","60588","DH-016","19:21:31","","","","","","","","","","","","assessment 5","","5289","components/portraits/StimImgFernandoAlves.PNG","0","","","","","0","Fernando Alves","A",""
"","image-slider-response-modified","345","3644344","0.0-345.0","60588","DH-016","19:21:32","","","","","","","","","","","","assessment 6","","837","components/portraits/StimImgSylviaSteinetz.PNG","0","","","","","0","Sylvia Steinetz","A",""
"","image-slider-response-modified","346","3644818","0.0-346.0","60588","DH-016","19:21:32","","","","","","","","","","","","assessment 7","","470","components/portraits/StimImgGraceFraser.PNG","90","","","","","90","Grace Fraser","A",""
"","html-keyboard-response","347","3645821","0.0-347.0","60588","DH-016","19:21:33","","","","","","","","","","","","","","null","[""<p style=\""font-size: 36px; width: 1200px; line-height: 40px;\"">Returning to the video...""]","null","","","","","","","",""
"","browser-check","348","3646822","0.0-348.0","60588","DH-016","19:21:34","1440","900","true","chrome","130.0.0","false","Mac OS","true","60.06","true","true","Browser_Check","","","","","","","","","","","",""
"","video-keyboard-response","349","3738029","0.0-349.0","60588","DH-016","19:23:6","","","","","","","","","","","","video29","","null","[""components/stim/StimVid_Undoing2.mp4""]","null","","","","","","","",""
"","image-slider-response-modified","350","3742156","0.0-350.0","60588","DH-016","19:23:10","","","","","","","","","","","","assessment 0","","4123","components/portraits/StimImgElenaAlves.PNG","80","","","","","80","Elena Alves","A",""
"","image-slider-response-modified","351","3742345","0.0-351.0","60588","DH-016","19:23:10","","","","","","","","","","","","assessment 1","","187","components/portraits/StimImgFranklinReinhardt.PNG","0","","","","","0","Franklin Reinhardt","A",""
"","image-slider-response-modified","352","3742667","0.0-352.0","60588","DH-016","19:23:10","","","","","","","","","","","","assessment 2","","318","components/portraits/StimImgHenryFraser.PNG","100","","","","","100","Henry Fraser","A",""
"","image-slider-response-modified","353","3743197","0.0-353.0","60588","DH-016","19:23:11","","","","","","","","","","","","assessment 3","","527","components/portraits/StimImgJonathanFraser.PNG","70","","","","","70","Jonathan Fraser","A",""
"","image-slider-response-modified","354","3743420","0.0-354.0","60588","DH-016","19:23:11","","","","","","","","","","","","assessment 4","","219","components/portraits/StimImgMiguelAlves.PNG","0","","","","","0","Miguel Alves","A",""
"","image-slider-response-modified","355","3743963","0.0-355.0","60588","DH-016","19:23:11","","","","","","","","","","","","assessment 5","","540","components/portraits/StimImgFernandoAlves.PNG","0","","","","","0","Fernando Alves","A",""
"","image-slider-response-modified","356","3744423","0.0-356.0","60588","DH-016","19:23:12","","","","","","","","","","","","assessment 6","","455","components/portraits/StimImgSylviaSteinetz.PNG","0","","","","","0","Sylvia Steinetz","A",""
"","image-slider-response-modified","357","3745298","0.0-357.0","60588","DH-016","19:23:13","","","","","","","","","","","","assessment 7","","872","components/portraits/StimImgGraceFraser.PNG","90","","","","","90","Grace Fraser","A",""
"","html-keyboard-response","358","3746301","0.0-358.0","60588","DH-016","19:23:14","","","","","","","","","","","","","","null","[""<p style=\""font-size: 36px; width: 1200px; line-height: 40px;\"">Returning to the video...""]","null","","","","","","","",""
"","browser-check","359","3747304","0.0-359.0","60588","DH-016","19:23:15","1440","900","true","chrome","130.0.0","false","Mac OS","true","59.98","true","true","Browser_Check","","","","","","","","","","","",""
"","video-keyboard-response","360","3834544","0.0-360.0","60588","DH-016","19:24:42","","","","","","","","","","","","video30","","null","[""components/stim/StimVid_Undoing2.mp4""]","null","","","","","","","",""
"","image-slider-response-modified","361","3837824","0.0-361.0","60588","DH-016","19:24:45","","","","","","","","","","","","assessment 0","","3277","components/portraits/StimImgElenaAlves.PNG","80","","","","","80","Elena Alves","A",""
"","image-slider-response-modified","362","3838028","0.0-362.0","60588","DH-016","19:24:46","","","","","","","","","","","","assessment 1","","200","components/portraits/StimImgFranklinReinhardt.PNG","0","","","","","0","Franklin Reinhardt","A",""
"","image-slider-response-modified","363","3838486","0.0-363.0","60588","DH-016","19:24:46","","","","","","","","","","","","assessment 2","","456","components/portraits/StimImgHenryFraser.PNG","100","","","","","100","Henry Fraser","A",""
"","image-slider-response-modified","364","3838711","0.0-364.0","60588","DH-016","19:24:46","","","","","","","","","","","","assessment 3","","222","components/portraits/StimImgJonathanFraser.PNG","70","","","","","70","Jonathan Fraser","A",""
"","image-slider-response-modified","365","3839404","0.0-365.0","60588","DH-016","19:24:47","","","","","","","","","","","","assessment 4","","688","components/portraits/StimImgMiguelAlves.PNG","0","","","","","0","Miguel Alves","A",""
"","image-slider-response-modified","366","3839886","0.0-366.0","60588","DH-016","19:24:47","","","","","","","","","","","","assessment 5","","478","components/portraits/StimImgFernandoAlves.PNG","0","","","","","0","Fernando Alves","A",""
"","image-slider-response-modified","367","3840161","0.0-367.0","60588","DH-016","19:24:48","","","","","","","","","","","","assessment 6","","270","components/portraits/StimImgSylviaSteinetz.PNG","0","","","","","0","Sylvia Steinetz","A",""
"","image-slider-response-modified","368","3840756","0.0-368.0","60588","DH-016","19:24:48","","","","","","","","","","","","assessment 7","","592","components/portraits/StimImgGraceFraser.PNG","90","","","","","90","Grace Fraser","A",""
"","html-keyboard-response","369","3841758","0.0-369.0","60588","DH-016","19:24:49","","","","","","","","","","","","","","null","[""<p style=\""font-size: 36px; width: 1200px; line-height: 40px;\"">Returning to the video...""]","null","","","","","","","",""
"","browser-check","370","3842776","0.0-370.0","60588","DH-016","19:24:50","1440","900","true","chrome","130.0.0","false","Mac OS","true","59.03","true","true","Browser_Check","","","","","","","","","","","",""
"","video-keyboard-response","371","3918042","0.0-371.0","60588","DH-016","19:26:6","","","","","","","","","","","","video31","","null","[""components/stim/StimVid_Undoing2.mp4""]","null","","","","","","","",""
"","image-slider-response-modified","372","3919768","0.0-372.0","60588","DH-016","19:26:7","","","","","","","","","","","","assessment 0","","1722","components/portraits/StimImgElenaAlves.PNG","80","","","","","80","Elena Alves","A",""
"","image-slider-response-modified","373","3920068","0.0-373.0","60588","DH-016","19:26:8","","","","","","","","","","","","assessment 1","","296","components/portraits/StimImgFranklinReinhardt.PNG","0","","","","","0","Franklin Reinhardt","A",""
"","image-slider-response-modified","374","3920251","0.0-374.0","60588","DH-016","19:26:8","","","","","","","","","","","","assessment 2","","179","components/portraits/StimImgHenryFraser.PNG","100","","","","","100","Henry Fraser","A",""
"","image-slider-response-modified","375","3930527","0.0-375.0","60588","DH-016","19:26:18","","","","","","","","","","","","assessment 3","","10272","components/portraits/StimImgJonathanFraser.PNG","67","","","","","70","Jonathan Fraser","A",""
"","image-slider-response-modified","376","3930737","0.0-376.0","60588","DH-016","19:26:18","","","","","","","","","","","","assessment 4","","206","components/portraits/StimImgMiguelAlves.PNG","0","","","","","0","Miguel Alves","A",""
"","image-slider-response-modified","377","3931063","0.0-377.0","60588","DH-016","19:26:19","","","","","","","","","","","","assessment 5","","322","components/portraits/StimImgFernandoAlves.PNG","0","","","","","0","Fernando Alves","A",""
"","image-slider-response-modified","378","3931306","0.0-378.0","60588","DH-016","19:26:19","","","","","","","","","","","","assessment 6","","239","components/portraits/StimImgSylviaSteinetz.PNG","0","","","","","0","Sylvia Steinetz","A",""
"","image-slider-response-modified","379","3931866","0.0-379.0","60588","DH-016","19:26:19","","","","","","","","","","","","assessment 7","","556","components/portraits/StimImgGraceFraser.PNG","90","","","","","90","Grace Fraser","A",""
"","html-keyboard-response","380","3932869","0.0-380.0","60588","DH-016","19:26:20","","","","","","","","","","","","","","null","[""<p style=\""font-size: 36px; width: 1200px; line-height: 40px;\"">Returning to the video...""]","null","","","","","","","",""
"","browser-check","381","3933878","0.0-381.0","60588","DH-016","19:26:21","1440","900","true","chrome","130.0.0","false","Mac OS","true","59.58","true","true","Browser_Check","","","","","","","","","","","",""
"","video-keyboard-response","382","4003353","0.0-382.0","60588","DH-016","19:27:31","","","","","","","","","","","","video32","","null","[""components/stim/StimVid_Undoing2.mp4""]","null","","","","","","","",""
"","image-slider-response-modified","383","4008121","0.0-383.0","60588","DH-016","19:27:36","","","","","","","","","","","","assessment 0","","4765","components/portraits/StimImgElenaAlves.PNG","80","","","","","80","Elena Alves","A",""
"","image-slider-response-modified","384","4008278","0.0-384.0","60588","DH-016","19:27:36","","","","","","","","","","","","assessment 1","","153","components/portraits/StimImgFranklinReinhardt.PNG","0","","","","","0","Franklin Reinhardt","A",""
"","image-slider-response-modified","385","4008471","0.0-385.0","60588","DH-016","19:27:36","","","","","","","","","","","","assessment 2","","189","components/portraits/StimImgHenryFraser.PNG","100","","","","","100","Henry Fraser","A",""
"","image-slider-response-modified","386","4008975","0.0-386.0","60588","DH-016","19:27:36","","","","","","","","","","","","assessment 3","","499","components/portraits/StimImgJonathanFraser.PNG","67","","","","","67","Jonathan Fraser","A",""
"","image-slider-response-modified","387","4009267","0.0-387.0","60588","DH-016","19:27:37","","","","","","","","","","","","assessment 4","","288","components/portraits/StimImgMiguelAlves.PNG","0","","","","","0","Miguel Alves","A",""
"","image-slider-response-modified","388","4009454","0.0-388.0","60588","DH-016","19:27:37","","","","","","","","","","","","assessment 5","","183","components/portraits/StimImgFernandoAlves.PNG","0","","","","","0","Fernando Alves","A",""
"","image-slider-response-modified","389","4009609","0.0-389.0","60588","DH-016","19:27:37","","","","","","","","","","","","assessment 6","","151","components/portraits/StimImgSylviaSteinetz.PNG","0","","","","","0","Sylvia Steinetz","A",""
"","image-slider-response-modified","390","4009765","0.0-390.0","60588","DH-016","19:27:37","","","","","","","","","","","","assessment 7","","151","components/portraits/StimImgGraceFraser.PNG","90","","","","","90","Grace Fraser","A",""
"","html-keyboard-response","391","4010768","0.0-391.0","60588","DH-016","19:27:38","","","","","","","","","","","","","","null","[""<p style=\""font-size: 36px; width: 1200px; line-height: 40px;\"">Returning to the video...""]","null","","","","","","","",""
"","browser-check","392","4011768","0.0-392.0","60588","DH-016","19:27:39","1440","900","true","chrome","130.0.0","false","Mac OS","true","60.13","true","true","Browser_Check","","","","","","","","","","","",""
"","video-keyboard-response","393","4081195","0.0-393.0","60588","DH-016","19:28:49","","","","","","","","","","","","video33","","null","[""components/stim/StimVid_Undoing2.mp4""]","null","","","","","","","",""
"","image-slider-response-modified","394","4085635","0.0-394.0","60588","DH-016","19:28:53","","","","","","","","","","","","assessment 0","","4436","components/portraits/StimImgElenaAlves.PNG","80","","","","","80","Elena Alves","A",""
"","image-slider-response-modified","395","4085857","0.0-395.0","60588","DH-016","19:28:53","","","","","","","","","","","","assessment 1","","218","components/portraits/StimImgFranklinReinhardt.PNG","0","","","","","0","Franklin Reinhardt","A",""
"","image-slider-response-modified","396","4089866","0.0-396.0","60588","DH-016","19:28:57","","","","","","","","","","","","assessment 2","","4005","components/portraits/StimImgHenryFraser.PNG","100","","","","","100","Henry Fraser","A",""
"","image-slider-response-modified","397","4097427","0.0-397.0","60588","DH-016","19:29:5","","","","","","","","","","","","assessment 3","","7557","components/portraits/StimImgJonathanFraser.PNG","0","","","","","67","Jonathan Fraser","A",""
"","image-slider-response-modified","398","4098066","0.0-398.0","60588","DH-016","19:29:6","","","","","","","","","","","","assessment 4","","637","components/portraits/StimImgMiguelAlves.PNG","0","","","","","0","Miguel Alves","A",""
"","image-slider-response-modified","399","4098474","0.0-399.0","60588","DH-016","19:29:6","","","","","","","","","","","","assessment 5","","404","components/portraits/StimImgFernandoAlves.PNG","0","","","","","0","Fernando Alves","A",""
"","image-slider-response-modified","400","4098916","0.0-400.0","60588","DH-016","19:29:6","","","","","","","","","","","","assessment 6","","437","components/portraits/StimImgSylviaSteinetz.PNG","0","","","","","0","Sylvia Steinetz","A",""
"","image-slider-response-modified","401","4100525","0.0-401.0","60588","DH-016","19:29:8","","","","","","","","","","","","assessment 7","","1605","components/portraits/StimImgGraceFraser.PNG","90","","","","","90","Grace Fraser","A",""
"","html-keyboard-response","402","4101528","0.0-402.0","60588","DH-016","19:29:9","","","","","","","","","","","","","","null","[""<p style=\""font-size: 36px; width: 1200px; line-height: 40px;\"">Returning to the video...""]","null","","","","","","","",""
"","video-keyboard-response","403","4101622","0.0-403.0","60588","DH-016","","","","","","","","","","","","","video 33","","null","[""components/stim/StimVid_Undoing2.mp4""]","null","","","","","","","",""
