"trial_id","trial_type","trial_index","time_elapsed","internal_node_id","subject_id","break_id","time","width","height","webaudio","browser","browser_version","mobile","os","fullscreen","vsync_rate","webcam","microphone","task","success","rt","stimulus","response","timeout","failed_images","failed_audio","failed_video","slider_start","character","label_condition","question_order"
"pavlovia_init","pavlovia","0","1355","0.0-0.0","60188","DH-015","13:12:39","","","","","","","","","","","","","","","","","","","","","","","",""
"","browser-check","1","2369","0.0-1.0","60188","DH-015","13:12:40","1470","832","true","chrome","129.0.0","false","Mac OS","true","59.57","true","true","Browser_Check","","","","","","","","","","","",""
"","fullscreen","2","8863","0.0-2.0","60188","DH-015","13:12:46","","","","","","","","","","","","Fullscreen","true","5490","","","","","","","","","",""
"","html-keyboard-response","3","25532","0.0-3.0","60188","DH-015","13:13:3","","","","","","","","","","","","Instruction","","16666","[""<p style=\""font-size: 36px; width: 1200px; line-height: 40px;\"">During this experiment, you will watch an episode of a publicly broadcasted murder mystery television show.<br><br>It contains adult themes and graphic language. While the video will portray a character accused of a violent crime, as well as verbal descriptions of the crime, <strong>violence will not be shown</strong>, nor will any other graphic visual content.<br><br><br>If you are not comfortable with continuing, please exit this experiment now.<br><br><br><br>Otherwise, please press the <strong>SPACE BAR</strong> to continue.</p>""]"," ","","","","","","","",""
"","preload","4","26425","0.0-4.0","60188","DH-015","13:13:4","","","","","","","","","","","","Preload","true","","","","false","[]","[]","[]","","","",""
"","image-button-response-modified","5","55051","0.0-5.0","60188","DH-015","13:13:32","","","","","","","","","","","","Consent","","28623","components/consent/SONA.png","0","","","","","","","",""
"","html-keyboard-response","6","57470","0.0-6.0","60188","DH-015","13:13:35","","","","","","","","","","","","Instr_Task","","2418","<p style=""font-size: 36px; width: 1200px; line-height: 40px;"">Thank you for agreeing to participate in this experiment! <br><br><br><br> Please press the <strong>SPACE BAR</strong> to continue</p>"," ","","","","","","","",""
"","html-keyboard-response","7","67583","0.0-7.0","60188","DH-015","13:13:45","","","","","","","","","","","","Instr_Task","","10112","<p style=""font-size: 36px; width: 1200px; line-height: 40px;"">Before we begin, please be sure that you are in a good space to complete the experiment. This space should be: <br><br><br><br> <strong>Comfortable <br><br> Distraction-free <br><br> Available for the next 60 minutes</strong> <br><br><br><br><br> Please press the <strong>SPACE BAR</strong> to continue</p>"," ","","","","","","","",""
"","html-keyboard-response","8","75126","0.0-8.0","60188","DH-015","13:13:52","","","","","","","","","","","","Instr_Task","","7542","<p style=""font-size: 36px; width: 1200px; line-height: 40px;""><strong>Please give your full attention to the experiment. This includes:</strong> <br><br><br><br> Closing or minimizing other programs on your computer <br><br> Silencing your phone or placing it somewhere it will not be distracting <br><br> Testing that your audio is working and set to a comfortable volume that you can clearly hear <br><br> Not completing this experiment with others present <br><br><br><br><br> Please press the <strong>SPACE BAR</strong> to continue</p>"," ","","","","","","","",""
"","html-keyboard-response","9","82114","0.0-9.0","60188","DH-015","13:13:59","","","","","","","","","","","","Instr_Task","","6987","<p style=""font-size: 36px; width: 1200px; line-height: 40px;"">You will watch 45 minutes of a crime mystery drama in which one character is suspected of having murdered another.<br><br><br>We will present background information about the characters of the show and the surrounding context before the episode begins.<br><br><br><br> Please press the <strong>SPACE BAR</strong> to continue</p>"," ","","","","","","","",""
"","html-keyboard-response","10","91363","0.0-10.0","60188","DH-015","13:14:9","","","","","","","","","","","","Instr_Task","","9247","<p style=""font-size: 36px; width: 1200px; line-height: 40px;"">The video will intermittently pause while you watch to assess how certain <strong>you</strong> are that different characters in the show are guilty or innocent of having committed the murder.<br><br><br><br> Please press the <strong>SPACE BAR</strong> to continue</p>"," ","","","","","","","",""
"","html-keyboard-response","11","110655","0.0-11.0","60188","DH-015","13:14:28","","","","","","","","","","","","Instr_Task","","19291","<p style=""font-size: 36px; width: 1200px; line-height: 40px;"">These certainty assessments tend to be flexible and may shift upon hearing something that a character says or seeing something that a character does or events that occur when a character is not on screen.<br><br><br>Some of this information may influence your assessments only slightly while other information may influence your assessments a great deal.<br><br><br>When prompted, please update your rating of how certain you are of each character's innocence or guilt at that moment in time. <br><br><br> Please try to be as precise as you can.<br><br><br><br> Please press the <strong>SPACE BAR</strong> to continue</p>"," ","","","","","","","",""
"","html-keyboard-response","12","119850","0.0-12.0","60188","DH-015","13:14:37","","","","","","","","","","","","Instr_Task","","9195","<p style=""font-size: 36px; width: 1200px; line-height: 40px;"">These certainty assessments will be assessed on a continuous scale. <br><br><br> The scale ranges from 100% certain that a character is guilty to 100% certain that a character is innocent.<br><br><br>Leaving the scale in the middle (i.e., 0% certain) would indicate that you are completely uncertain whether a character is innocent or guilt.<br><br><br><br> Please press the <strong>SPACE BAR</strong> to continue</p>"," ","","","","","","","",""
"","html-keyboard-response","13","129632","0.0-13.0","60188","DH-015","13:14:47","","","","","","","","","","","","Instr_Task","","9781","<p style=""font-size: 36px; width: 1200px; line-height: 40px;"">After your first rating, we will mark the scale where you had last rated that character to hopefully make updating your certainty rating easier. <br><br><br>A progress bar at the top will show the order in which you will assess the characters.<br><br><br>A portrait in the center of the screen will identify which character you are assessing at that moment.<br><br><br>Let's look at an example of what this looks like.<br><br><br><br> Please press the <strong>SPACE BAR</strong> to continue</p>"," ","","","","","","","",""
"","preload","14","130909","0.0-14.0","60188","DH-015","13:14:48","","","","","","","","","","","","Preload","true","","","","false","[]","[]","[]","","","",""
"","image-slider-response-modified","15","178804","0.0-15.0","60188","DH-015","13:15:36","","","","","","","","","","","","Practice","","47889","components/portraits/StimImgFernandoAlves.PNG","-33","","","","","0","Fernando Alves","A",""
"","image-slider-response-modified","16","192076","0.0-16.0-0.0-0.0","60188","DH-015","13:15:49","","","","","","","","","","","","PracticeFailure","","13267","components/portraits/StimImgFernandoAlves.PNG","50","","","","","0","Fernando Alves","A",""
"","html-keyboard-response","17","195276","0.0-17.0","60188","DH-015","13:15:52","","","","","","","","","","","","PracticeSuccess","","3197","[""<p style=\""font-size: 36px; width: 1200px; line-height: 40px;\"">Great! If you have any questions that you must have answered before continuing, please contact study staff via the recruitment platform.<br><br><br>If you are ready to start, we will present the background information.<br><br><br><br> Please press the <strong>SPACE BAR</strong> to continue</p>""]"," ","","","","","","","",""
"","image-keyboard-response-modified","18","209989","0.0-18.0","60188","DH-015","13:16:7","","","","","","","","","","","","Background","","14709","[""components/portraits/StimImgElenaAlves.PNG"",""components/portraits/StimImgJonathanFraser.PNG""]"," ","","","","","","","",""
"","image-keyboard-response-modified","19","221788","0.0-19.0","60188","DH-015","13:16:19","","","","","","","","","","","","Background","","11797","[""components/portraits/StimImgElenaAlves.PNG"",""components/portraits/StimImgJonathanFraser.PNG""]"," ","","","","","","","",""
"","image-keyboard-response-modified","20","239085","0.0-20.0","60188","DH-015","13:16:36","","","","","","","","","","","","Background","","17296","[""components/portraits/StimImgMiguelAlves.PNG"",""components/portraits/StimImgHenryFraser.PNG""]"," ","","","","","","","",""
"","image-keyboard-response-modified","21","247517","0.0-21.0","60188","DH-015","13:16:45","","","","","","","","","","","","Background","","8430","[""components/portraits/StimImgFernandoAlves.PNG"",""components/portraits/StimImgGraceFraser.PNG""]"," ","","","","","","","",""
"","image-keyboard-response-modified","22","258836","0.0-22.0","60188","DH-015","13:16:56","","","","","","","","","","","","Background","","11317","[""components/portraits/StimImgSylviaSteinetz.PNG"",""components/portraits/StimImgFranklinReinhardt.PNG""]"," ","","","","","","","",""
"","image-keyboard-response-modified","23","270961","0.0-23.0","60188","DH-015","13:17:8","","","","","","","","","","","","Background","","12124","[""components/portraits/StimImgRobertAdelman.PNG"",""components/portraits/StimImgHaleyFitzgerald.PNG""]"," ","","","","","","","",""
"","image-keyboard-response-modified","24","283183","0.0-24.0","60188","DH-015","13:17:20","","","","","","","","","","","","Background","","12221","[""components/portraits/StimImgJoeMendoza.PNG""]"," ","","","","","","","",""
"","html-keyboard-response","25","284788","0.0-25.0","60188","DH-015","13:17:22","","","","","","","","","","","","Instr_ExpStart","","1604","[""<p style=\""font-size: 36px; width: 1200px; line-height: 40px;\"">The experiment will now start! <br><br><br><br> Please press the <strong>SPACE BAR</strong> to continue</p>""]"," ","","","","","","","",""
"","preload","26","453847","0.0-26.0","60188","DH-015","13:20:11","","","","","","","","","","","","Preload","true","","","","false","[]","[]","[]","","","",""
"","browser-check","27","458722","0.0-27.0","60188","DH-015","13:20:16","1470","920","true","chrome","129.0.0","false","Mac OS","true","60.02","true","true","Browser_Check","","","","","","","","","","","",""
"","video-keyboard-response","28","557053","0.0-28.0","60188","DH-015","13:21:54","","","","","","","","","","","","video 0","","null","[""components/stim/StimVid_Undoing1.mp4""]","null","","","","","","","",""
"","image-slider-response-modified","29","597379","0.0-29.0","60188","DH-015","13:22:35","","","","","","","","","","","","assessment 0","","40321","components/portraits/StimImgFernandoAlves.PNG","-20","","","","","0","Fernando Alves","A",""
"","image-slider-response-modified","30","601805","0.0-30.0","60188","DH-015","13:22:39","","","","","","","","","","","","assessment 1","","4422","components/portraits/StimImgHenryFraser.PNG","100","","","","","0","Henry Fraser","A",""
"","image-slider-response-modified","31","605058","0.0-31.0","60188","DH-015","13:22:42","","","","","","","","","","","","assessment 2","","3250","components/portraits/StimImgMiguelAlves.PNG","100","","","","","0","Miguel Alves","A",""
"","image-slider-response-modified","32","612259","0.0-32.0","60188","DH-015","13:22:49","","","","","","","","","","","","assessment 3","","7197","components/portraits/StimImgSylviaSteinetz.PNG","60","","","","","0","Sylvia Steinetz","A",""
"","image-slider-response-modified","33","618404","0.0-33.0","60188","DH-015","13:22:56","","","","","","","","","","","","assessment 4","","6143","components/portraits/StimImgElenaAlves.PNG","70","","","","","0","Elena Alves","A",""
"","image-slider-response-modified","34","625477","0.0-34.0","60188","DH-015","13:23:3","","","","","","","","","","","","assessment 5","","7070","components/portraits/StimImgGraceFraser.PNG","-25","","","","","0","Grace Fraser","A",""
"","image-slider-response-modified","35","633077","0.0-35.0","60188","DH-015","13:23:10","","","","","","","","","","","","assessment 6","","7596","components/portraits/StimImgFranklinReinhardt.PNG","60","","","","","0","Franklin Reinhardt","A",""
"","image-slider-response-modified","36","642538","0.0-36.0","60188","DH-015","13:23:20","","","","","","","","","","","","assessment 7","","9457","components/portraits/StimImgJonathanFraser.PNG","-60","","","","","0","Jonathan Fraser","A",""
"","html-keyboard-response","37","643541","0.0-37.0","60188","DH-015","13:23:21","","","","","","","","","","","","","","null","[""<p style=\""font-size: 36px; width: 1200px; line-height: 40px;\"">Returning to the video...""]","null","","","","","","","",""
"","browser-check","38","644535","0.0-38.0","60188","DH-015","13:23:22","1470","832","true","chrome","129.0.0","false","Mac OS","true","60.53","true","true","Browser_Check","","","","","","","","","","","",""
"","video-keyboard-response","39","721881","0.0-39.0","60188","DH-015","13:24:39","","","","","","","","","","","","video 1","","null","[""components/stim/StimVid_Undoing1.mp4""]","null","","","","","","","",""
"","image-slider-response-modified","40","729308","0.0-40.0","60188","DH-015","13:24:46","","","","","","","","","","","","assessment 0","","7421","components/portraits/StimImgFernandoAlves.PNG","-20","","","","","-20","Fernando Alves","A",""
"","image-slider-response-modified","41","731379","0.0-41.0","60188","DH-015","13:24:49","","","","","","","","","","","","assessment 1","","2067","components/portraits/StimImgHenryFraser.PNG","100","","","","","100","Henry Fraser","A",""
"","image-slider-response-modified","42","732294","0.0-42.0","60188","DH-015","13:24:49","","","","","","","","","","","","assessment 2","","911","components/portraits/StimImgMiguelAlves.PNG","100","","","","","100","Miguel Alves","A",""
"","image-slider-response-modified","43","734284","0.0-43.0","60188","DH-015","13:24:51","","","","","","","","","","","","assessment 3","","1986","components/portraits/StimImgSylviaSteinetz.PNG","60","","","","","60","Sylvia Steinetz","A",""
"","image-slider-response-modified","44","735442","0.0-44.0","60188","DH-015","13:24:53","","","","","","","","","","","","assessment 4","","1154","components/portraits/StimImgElenaAlves.PNG","70","","","","","70","Elena Alves","A",""
"","image-slider-response-modified","45","752548","0.0-45.0","60188","DH-015","13:25:10","","","","","","","","","","","","assessment 5","","17103","components/portraits/StimImgGraceFraser.PNG","-25","","","","","-25","Grace Fraser","A",""
"","image-slider-response-modified","46","753835","0.0-46.0","60188","DH-015","13:25:11","","","","","","","","","","","","assessment 6","","1282","components/portraits/StimImgFranklinReinhardt.PNG","60","","","","","60","Franklin Reinhardt","A",""
"","image-slider-response-modified","47","755518","0.0-47.0","60188","DH-015","13:25:13","","","","","","","","","","","","assessment 7","","1678","components/portraits/StimImgJonathanFraser.PNG","-60","","","","","-60","Jonathan Fraser","A",""
"","html-keyboard-response","48","756522","0.0-48.0","60188","DH-015","13:25:14","","","","","","","","","","","","","","null","[""<p style=\""font-size: 36px; width: 1200px; line-height: 40px;\"">Returning to the video...""]","null","","","","","","","",""
"","browser-check","49","757519","0.0-49.0","60188","DH-015","13:25:15","1470","832","true","chrome","129.0.0","false","Mac OS","true","60.37","true","true","Browser_Check","","","","","","","","","","","",""
"","video-keyboard-response","50","838850","0.0-50.0","60188","DH-015","13:26:36","","","","","","","","","","","","video 2","","null","[""components/stim/StimVid_Undoing1.mp4""]","null","","","","","","","",""
"","image-slider-response-modified","51","845728","0.0-51.0","60188","DH-015","13:26:43","","","","","","","","","","","","assessment 0","","6874","components/portraits/StimImgFernandoAlves.PNG","-20","","","","","-20","Fernando Alves","A",""
"","image-slider-response-modified","52","846561","0.0-52.0","60188","DH-015","13:26:44","","","","","","","","","","","","assessment 1","","829","components/portraits/StimImgHenryFraser.PNG","100","","","","","100","Henry Fraser","A",""
"","image-slider-response-modified","53","848325","0.0-53.0","60188","DH-015","13:26:46","","","","","","","","","","","","assessment 2","","1761","components/portraits/StimImgMiguelAlves.PNG","100","","","","","100","Miguel Alves","A",""
"","image-slider-response-modified","54","850453","0.0-54.0","60188","DH-015","13:26:48","","","","","","","","","","","","assessment 3","","2124","components/portraits/StimImgSylviaSteinetz.PNG","60","","","","","60","Sylvia Steinetz","A",""
"","image-slider-response-modified","55","850875","0.0-55.0","60188","DH-015","13:26:48","","","","","","","","","","","","assessment 4","","417","components/portraits/StimImgElenaAlves.PNG","70","","","","","70","Elena Alves","A",""
"","image-slider-response-modified","56","851190","0.0-56.0","60188","DH-015","13:26:48","","","","","","","","","","","","assessment 5","","311","components/portraits/StimImgGraceFraser.PNG","-25","","","","","-25","Grace Fraser","A",""
"","image-slider-response-modified","57","865432","0.0-57.0","60188","DH-015","13:27:3","","","","","","","","","","","","assessment 6","","14237","components/portraits/StimImgFranklinReinhardt.PNG","60","","","","","60","Franklin Reinhardt","A",""
"","image-slider-response-modified","58","865876","0.0-58.0","60188","DH-015","13:27:3","","","","","","","","","","","","assessment 7","","441","components/portraits/StimImgJonathanFraser.PNG","-60","","","","","-60","Jonathan Fraser","A",""
"","html-keyboard-response","59","866880","0.0-59.0","60188","DH-015","13:27:4","","","","","","","","","","","","","","null","[""<p style=\""font-size: 36px; width: 1200px; line-height: 40px;\"">Returning to the video...""]","null","","","","","","","",""
"","browser-check","60","867886","0.0-60.0","60188","DH-015","13:27:5","1470","832","true","chrome","129.0.0","false","Mac OS","true","59.86","true","true","Browser_Check","","","","","","","","","","","",""
"","video-keyboard-response","61","937256","0.0-61.0","60188","DH-015","13:28:14","","","","","","","","","","","","video 3","","null","[""components/stim/StimVid_Undoing1.mp4""]","null","","","","","","","",""
"","image-slider-response-modified","62","939977","0.0-62.0","60188","DH-015","13:28:17","","","","","","","","","","","","assessment 0","","2716","components/portraits/StimImgFernandoAlves.PNG","-20","","","","","-20","Fernando Alves","A",""
"","image-slider-response-modified","63","940372","0.0-63.0","60188","DH-015","13:28:18","","","","","","","","","","","","assessment 1","","391","components/portraits/StimImgHenryFraser.PNG","100","","","","","100","Henry Fraser","A",""
"","image-slider-response-modified","64","940713","0.0-64.0","60188","DH-015","13:28:18","","","","","","","","","","","","assessment 2","","337","components/portraits/StimImgMiguelAlves.PNG","100","","","","","100","Miguel Alves","A",""
"","image-slider-response-modified","65","941069","0.0-65.0","60188","DH-015","13:28:18","","","","","","","","","","","","assessment 3","","352","components/portraits/StimImgSylviaSteinetz.PNG","60","","","","","60","Sylvia Steinetz","A",""
"","image-slider-response-modified","66","941490","0.0-66.0","60188","DH-015","13:28:19","","","","","","","","","","","","assessment 4","","417","components/portraits/StimImgElenaAlves.PNG","70","","","","","70","Elena Alves","A",""
"","image-slider-response-modified","67","942737","0.0-67.0","60188","DH-015","13:28:20","","","","","","","","","","","","assessment 5","","1242","components/portraits/StimImgGraceFraser.PNG","-25","","","","","-25","Grace Fraser","A",""
"","image-slider-response-modified","68","943424","0.0-68.0","60188","DH-015","13:28:21","","","","","","","","","","","","assessment 6","","683","components/portraits/StimImgFranklinReinhardt.PNG","60","","","","","60","Franklin Reinhardt","A",""
"","image-slider-response-modified","69","944056","0.0-69.0","60188","DH-015","13:28:21","","","","","","","","","","","","assessment 7","","627","components/portraits/StimImgJonathanFraser.PNG","-60","","","","","-60","Jonathan Fraser","A",""
"","html-keyboard-response","70","945059","0.0-70.0","60188","DH-015","13:28:22","","","","","","","","","","","","","","null","[""<p style=\""font-size: 36px; width: 1200px; line-height: 40px;\"">Returning to the video...""]","null","","","","","","","",""
"","browser-check","71","946054","0.0-71.0","60188","DH-015","13:28:23","1470","832","true","chrome","129.0.0","false","Mac OS","true","60.52","true","true","Browser_Check","","","","","","","","","","","",""
"","video-keyboard-response","72","1019415","0.0-72.0","60188","DH-015","13:29:37","","","","","","","","","","","","video 4","","null","[""components/stim/StimVid_Undoing1.mp4""]","null","","","","","","","",""
"","image-slider-response-modified","73","1022362","0.0-73.0","60188","DH-015","13:29:40","","","","","","","","","","","","assessment 0","","2943","components/portraits/StimImgFernandoAlves.PNG","-20","","","","","-20","Fernando Alves","A",""
"","image-slider-response-modified","74","1022720","0.0-74.0","60188","DH-015","13:29:40","","","","","","","","","","","","assessment 1","","355","components/portraits/StimImgHenryFraser.PNG","100","","","","","100","Henry Fraser","A",""
"","image-slider-response-modified","75","1022986","0.0-75.0","60188","DH-015","13:29:40","","","","","","","","","","","","assessment 2","","263","components/portraits/StimImgMiguelAlves.PNG","100","","","","","100","Miguel Alves","A",""
"","image-slider-response-modified","76","1023197","0.0-76.0","60188","DH-015","13:29:40","","","","","","","","","","","","assessment 3","","206","components/portraits/StimImgSylviaSteinetz.PNG","60","","","","","60","Sylvia Steinetz","A",""
"","image-slider-response-modified","77","1023415","0.0-77.0","60188","DH-015","13:29:41","","","","","","","","","","","","assessment 4","","214","components/portraits/StimImgElenaAlves.PNG","70","","","","","70","Elena Alves","A",""
"","image-slider-response-modified","78","1023642","0.0-78.0","60188","DH-015","13:29:41","","","","","","","","","","","","assessment 5","","223","components/portraits/StimImgGraceFraser.PNG","-25","","","","","-25","Grace Fraser","A",""
"","image-slider-response-modified","79","1024054","0.0-79.0","60188","DH-015","13:29:41","","","","","","","","","","","","assessment 6","","409","components/portraits/StimImgFranklinReinhardt.PNG","60","","","","","60","Franklin Reinhardt","A",""
"","image-slider-response-modified","80","1024297","0.0-80.0","60188","DH-015","13:29:41","","","","","","","","","","","","assessment 7","","239","components/portraits/StimImgJonathanFraser.PNG","-60","","","","","-60","Jonathan Fraser","A",""
"","html-keyboard-response","81","1025300","0.0-81.0","60188","DH-015","13:29:42","","","","","","","","","","","","","","null","[""<p style=\""font-size: 36px; width: 1200px; line-height: 40px;\"">Returning to the video...""]","null","","","","","","","",""
"","browser-check","82","1026289","0.0-82.0","60188","DH-015","13:29:43","1470","832","true","chrome","129.0.0","false","Mac OS","true","60.85","true","true","Browser_Check","","","","","","","","","","","",""
"","video-keyboard-response","83","1093541","0.0-83.0","60188","DH-015","13:30:51","","","","","","","","","","","","video 5","","null","[""components/stim/StimVid_Undoing1.mp4""]","null","","","","","","","",""
"","image-slider-response-modified","84","1095940","0.0-84.0","60188","DH-015","13:30:53","","","","","","","","","","","","assessment 0","","2395","components/portraits/StimImgFernandoAlves.PNG","-20","","","","","-20","Fernando Alves","A",""
"","image-slider-response-modified","85","1096749","0.0-85.0","60188","DH-015","13:30:54","","","","","","","","","","","","assessment 1","","804","components/portraits/StimImgHenryFraser.PNG","100","","","","","100","Henry Fraser","A",""
"","image-slider-response-modified","86","1097680","0.0-86.0","60188","DH-015","13:30:55","","","","","","","","","","","","assessment 2","","927","components/portraits/StimImgMiguelAlves.PNG","100","","","","","100","Miguel Alves","A",""
"","image-slider-response-modified","87","1098732","0.0-87.0","60188","DH-015","13:30:56","","","","","","","","","","","","assessment 3","","1047","components/portraits/StimImgSylviaSteinetz.PNG","60","","","","","60","Sylvia Steinetz","A",""
"","image-slider-response-modified","88","1099986","0.0-88.0","60188","DH-015","13:30:57","","","","","","","","","","","","assessment 4","","1250","components/portraits/StimImgElenaAlves.PNG","70","","","","","70","Elena Alves","A",""
"","image-slider-response-modified","89","1101231","0.0-89.0","60188","DH-015","13:30:58","","","","","","","","","","","","assessment 5","","1242","components/portraits/StimImgGraceFraser.PNG","-25","","","","","-25","Grace Fraser","A",""
"","image-slider-response-modified","90","1102575","0.0-90.0","60188","DH-015","13:31:0","","","","","","","","","","","","assessment 6","","1339","components/portraits/StimImgFranklinReinhardt.PNG","60","","","","","60","Franklin Reinhardt","A",""
"","image-slider-response-modified","91","1103805","0.0-91.0","60188","DH-015","13:31:1","","","","","","","","","","","","assessment 7","","1226","components/portraits/StimImgJonathanFraser.PNG","-60","","","","","-60","Jonathan Fraser","A",""
"","html-keyboard-response","92","1104809","0.0-92.0","60188","DH-015","13:31:2","","","","","","","","","","","","","","null","[""<p style=\""font-size: 36px; width: 1200px; line-height: 40px;\"">Returning to the video...""]","null","","","","","","","",""
"","browser-check","93","1105806","0.0-93.0","60188","DH-015","13:31:3","1470","832","true","chrome","129.0.0","false","Mac OS","true","60.33","true","true","Browser_Check","","","","","","","","","","","",""
"","video-keyboard-response","94","1225119","0.0-94.0","60188","DH-015","13:33:2","","","","","","","","","","","","video 6","","null","[""components/stim/StimVid_Undoing1.mp4""]","null","","","","","","","",""
"","image-slider-response-modified","95","1228132","0.0-95.0","60188","DH-015","13:33:5","","","","","","","","","","","","assessment 0","","3009","components/portraits/StimImgFernandoAlves.PNG","-20","","","","","-20","Fernando Alves","A",""
"","image-slider-response-modified","96","1229726","0.0-96.0","60188","DH-015","13:33:7","","","","","","","","","","","","assessment 1","","1590","components/portraits/StimImgHenryFraser.PNG","100","","","","","100","Henry Fraser","A",""
"","image-slider-response-modified","97","1230503","0.0-97.0","60188","DH-015","13:33:8","","","","","","","","","","","","assessment 2","","772","components/portraits/StimImgMiguelAlves.PNG","100","","","","","100","Miguel Alves","A",""
"","image-slider-response-modified","98","1231288","0.0-98.0","60188","DH-015","13:33:8","","","","","","","","","","","","assessment 3","","781","components/portraits/StimImgSylviaSteinetz.PNG","60","","","","","60","Sylvia Steinetz","A",""
"","image-slider-response-modified","99","1232113","0.0-99.0","60188","DH-015","13:33:9","","","","","","","","","","","","assessment 4","","821","components/portraits/StimImgElenaAlves.PNG","70","","","","","70","Elena Alves","A",""
"","image-slider-response-modified","100","1234200","0.0-100.0","60188","DH-015","13:33:11","","","","","","","","","","","","assessment 5","","2083","components/portraits/StimImgGraceFraser.PNG","-25","","","","","-25","Grace Fraser","A",""
"","image-slider-response-modified","101","1235713","0.0-101.0","60188","DH-015","13:33:13","","","","","","","","","","","","assessment 6","","1509","components/portraits/StimImgFranklinReinhardt.PNG","60","","","","","60","Franklin Reinhardt","A",""
"","image-slider-response-modified","102","1236781","0.0-102.0","60188","DH-015","13:33:14","","","","","","","","","","","","assessment 7","","1064","components/portraits/StimImgJonathanFraser.PNG","-60","","","","","-60","Jonathan Fraser","A",""
"","html-keyboard-response","103","1237783","0.0-103.0","60188","DH-015","13:33:15","","","","","","","","","","","","","","null","[""<p style=\""font-size: 36px; width: 1200px; line-height: 40px;\"">Returning to the video...""]","null","","","","","","","",""
"","browser-check","104","1238790","0.0-104.0","60188","DH-015","13:33:16","1470","832","true","chrome","129.0.0","false","Mac OS","true","59.98","true","true","Browser_Check","","","","","","","","","","","",""
"","video-keyboard-response","105","1321963","0.0-105.0","60188","DH-015","13:34:39","","","","","","","","","","","","video 7","","null","[""components/stim/StimVid_Undoing1.mp4""]","null","","","","","","","",""
"","image-slider-response-modified","106","1323907","0.0-106.0","60188","DH-015","13:34:41","","","","","","","","","","","","assessment 0","","1940","components/portraits/StimImgFernandoAlves.PNG","-20","","","","","-20","Fernando Alves","A",""
"","image-slider-response-modified","107","1324709","0.0-107.0","60188","DH-015","13:34:42","","","","","","","","","","","","assessment 1","","798","components/portraits/StimImgHenryFraser.PNG","100","","","","","100","Henry Fraser","A",""
"","image-slider-response-modified","108","1325889","0.0-108.0","60188","DH-015","13:34:43","","","","","","","","","","","","assessment 2","","1176","components/portraits/StimImgMiguelAlves.PNG","100","","","","","100","Miguel Alves","A",""
"","image-slider-response-modified","109","1326965","0.0-109.0","60188","DH-015","13:34:44","","","","","","","","","","","","assessment 3","","1072","components/portraits/StimImgSylviaSteinetz.PNG","60","","","","","60","Sylvia Steinetz","A",""
"","image-slider-response-modified","110","1327822","0.0-110.0","60188","DH-015","13:34:45","","","","","","","","","","","","assessment 4","","853","components/portraits/StimImgElenaAlves.PNG","70","","","","","70","Elena Alves","A",""
"","image-slider-response-modified","111","1328511","0.0-111.0","60188","DH-015","13:34:46","","","","","","","","","","","","assessment 5","","684","components/portraits/StimImgGraceFraser.PNG","-25","","","","","-25","Grace Fraser","A",""
"","image-slider-response-modified","112","1332685","0.0-112.0","60188","DH-015","13:34:50","","","","","","","","","","","","assessment 6","","4171","components/portraits/StimImgFranklinReinhardt.PNG","60","","","","","60","Franklin Reinhardt","A",""
"","image-slider-response-modified","113","1333834","0.0-113.0","60188","DH-015","13:34:51","","","","","","","","","","","","assessment 7","","1145","components/portraits/StimImgJonathanFraser.PNG","-60","","","","","-60","Jonathan Fraser","A",""
"","html-keyboard-response","114","1334837","0.0-114.0","60188","DH-015","13:34:52","","","","","","","","","","","","","","null","[""<p style=\""font-size: 36px; width: 1200px; line-height: 40px;\"">Returning to the video...""]","null","","","","","","","",""
"","browser-check","115","1335840","0.0-115.0","60188","DH-015","13:34:53","1470","832","true","chrome","129.0.0","false","Mac OS","true","60.02","true","true","Browser_Check","","","","","","","","","","","",""
"","video-keyboard-response","116","1409197","0.0-116.0","60188","DH-015","13:36:6","","","","","","","","","","","","video 8","","null","[""components/stim/StimVid_Undoing1.mp4""]","null","","","","","","","",""
"","image-slider-response-modified","117","1411587","0.0-117.0","60188","DH-015","13:36:9","","","","","","","","","","","","assessment 0","","2386","components/portraits/StimImgFernandoAlves.PNG","-20","","","","","-20","Fernando Alves","A",""
"","image-slider-response-modified","118","1412559","0.0-118.0","60188","DH-015","13:36:10","","","","","","","","","","","","assessment 1","","967","components/portraits/StimImgHenryFraser.PNG","100","","","","","100","Henry Fraser","A",""
"","image-slider-response-modified","119","1413667","0.0-119.0","60188","DH-015","13:36:11","","","","","","","","","","","","assessment 2","","1104","components/portraits/StimImgMiguelAlves.PNG","100","","","","","100","Miguel Alves","A",""
"","image-slider-response-modified","120","1414962","0.0-120.0","60188","DH-015","13:36:12","","","","","","","","","","","","assessment 3","","1291","components/portraits/StimImgSylviaSteinetz.PNG","60","","","","","60","Sylvia Steinetz","A",""
"","image-slider-response-modified","121","1415965","0.0-121.0","60188","DH-015","13:36:13","","","","","","","","","","","","assessment 4","","999","components/portraits/StimImgElenaAlves.PNG","70","","","","","70","Elena Alves","A",""
"","image-slider-response-modified","122","1416935","0.0-122.0","60188","DH-015","13:36:14","","","","","","","","","","","","assessment 5","","967","components/portraits/StimImgGraceFraser.PNG","-25","","","","","-25","Grace Fraser","A",""
"","image-slider-response-modified","123","1417834","0.0-123.0","60188","DH-015","13:36:15","","","","","","","","","","","","assessment 6","","894","components/portraits/StimImgFranklinReinhardt.PNG","60","","","","","60","Franklin Reinhardt","A",""
"","image-slider-response-modified","124","1418909","0.0-124.0","60188","DH-015","13:36:16","","","","","","","","","","","","assessment 7","","1071","components/portraits/StimImgJonathanFraser.PNG","-60","","","","","-60","Jonathan Fraser","A",""
"","html-keyboard-response","125","1419912","0.0-125.0","60188","DH-015","13:36:17","","","","","","","","","","","","","","null","[""<p style=\""font-size: 36px; width: 1200px; line-height: 40px;\"">Returning to the video...""]","null","","","","","","","",""
"","browser-check","126","1420907","0.0-126.0","60188","DH-015","13:36:18","1470","832","true","chrome","129.0.0","false","Mac OS","true","60.53","true","true","Browser_Check","","","","","","","","","","","",""
"","video-keyboard-response","127","1506212","0.0-127.0","60188","DH-015","13:37:43","","","","","","","","","","","","video 9","","null","[""components/stim/StimVid_Undoing1.mp4""]","null","","","","","","","",""
"","image-slider-response-modified","128","1507836","0.0-128.0","60188","DH-015","13:37:45","","","","","","","","","","","","assessment 0","","1621","components/portraits/StimImgFernandoAlves.PNG","-20","","","","","-20","Fernando Alves","A",""
"","image-slider-response-modified","129","1508725","0.0-129.0","60188","DH-015","13:37:46","","","","","","","","","","","","assessment 1","","885","components/portraits/StimImgHenryFraser.PNG","100","","","","","100","Henry Fraser","A",""
"","image-slider-response-modified","130","1509624","0.0-130.0","60188","DH-015","13:37:47","","","","","","","","","","","","assessment 2","","895","components/portraits/StimImgMiguelAlves.PNG","100","","","","","100","Miguel Alves","A",""
"","image-slider-response-modified","131","1510553","0.0-131.0","60188","DH-015","13:37:48","","","","","","","","","","","","assessment 3","","925","components/portraits/StimImgSylviaSteinetz.PNG","60","","","","","60","Sylvia Steinetz","A",""
"","image-slider-response-modified","132","1511468","0.0-132.0","60188","DH-015","13:37:49","","","","","","","","","","","","assessment 4","","911","components/portraits/StimImgElenaAlves.PNG","70","","","","","70","Elena Alves","A",""
"","image-slider-response-modified","133","1512350","0.0-133.0","60188","DH-015","13:37:50","","","","","","","","","","","","assessment 5","","877","components/portraits/StimImgGraceFraser.PNG","-25","","","","","-25","Grace Fraser","A",""
"","image-slider-response-modified","134","1513118","0.0-134.0","60188","DH-015","13:37:50","","","","","","","","","","","","assessment 6","","765","components/portraits/StimImgFranklinReinhardt.PNG","60","","","","","60","Franklin Reinhardt","A",""
"","image-slider-response-modified","135","1514380","0.0-135.0","60188","DH-015","13:37:52","","","","","","","","","","","","assessment 7","","1257","components/portraits/StimImgJonathanFraser.PNG","-60","","","","","-60","Jonathan Fraser","A",""
"","html-keyboard-response","136","1515383","0.0-136.0","60188","DH-015","13:37:53","","","","","","","","","","","","","","null","[""<p style=\""font-size: 36px; width: 1200px; line-height: 40px;\"">Returning to the video...""]","null","","","","","","","",""
"","browser-check","137","1516390","0.0-137.0","60188","DH-015","13:37:54","1470","832","true","chrome","129.0.0","false","Mac OS","true","59.72","true","true","Browser_Check","","","","","","","","","","","",""
"","video-keyboard-response","138","1585759","0.0-138.0","60188","DH-015","13:39:3","","","","","","","","","","","","video 10","","null","[""components/stim/StimVid_Undoing1.mp4""]","null","","","","","","","",""
"","image-slider-response-modified","139","1588032","0.0-139.0","60188","DH-015","13:39:5","","","","","","","","","","","","assessment 0","","2268","components/portraits/StimImgFernandoAlves.PNG","-20","","","","","-20","Fernando Alves","A",""
"","image-slider-response-modified","140","1588809","0.0-140.0","60188","DH-015","13:39:6","","","","","","","","","","","","assessment 1","","773","components/portraits/StimImgHenryFraser.PNG","100","","","","","100","Henry Fraser","A",""
"","image-slider-response-modified","141","1589658","0.0-141.0","60188","DH-015","13:39:7","","","","","","","","","","","","assessment 2","","845","components/portraits/StimImgMiguelAlves.PNG","100","","","","","100","Miguel Alves","A",""
"","image-slider-response-modified","142","1590759","0.0-142.0","60188","DH-015","13:39:8","","","","","","","","","","","","assessment 3","","1097","components/portraits/StimImgSylviaSteinetz.PNG","60","","","","","60","Sylvia Steinetz","A",""
"","image-slider-response-modified","143","1592151","0.0-143.0","60188","DH-015","13:39:9","","","","","","","","","","","","assessment 4","","1387","components/portraits/StimImgElenaAlves.PNG","70","","","","","70","Elena Alves","A",""
"","image-slider-response-modified","144","1593283","0.0-144.0","60188","DH-015","13:39:10","","","","","","","","","","","","assessment 5","","1128","components/portraits/StimImgGraceFraser.PNG","-25","","","","","-25","Grace Fraser","A",""
"","image-slider-response-modified","145","1594366","0.0-145.0","60188","DH-015","13:39:12","","","","","","","","","","","","assessment 6","","1080","components/portraits/StimImgFranklinReinhardt.PNG","60","","","","","60","Franklin Reinhardt","A",""
"","image-slider-response-modified","146","1595419","0.0-146.0","60188","DH-015","13:39:13","","","","","","","","","","","","assessment 7","","1049","components/portraits/StimImgJonathanFraser.PNG","-60","","","","","-60","Jonathan Fraser","A",""
"","html-keyboard-response","147","1596422","0.0-147.0","60188","DH-015","13:39:14","","","","","","","","","","","","","","null","[""<p style=\""font-size: 36px; width: 1200px; line-height: 40px;\"">Returning to the video...""]","null","","","","","","","",""
"","browser-check","148","1597424","0.0-148.0","60188","DH-015","13:39:15","1470","832","true","chrome","129.0.0","false","Mac OS","true","60.04","true","true","Browser_Check","","","","","","","","","","","",""
"","video-keyboard-response","149","1670775","0.0-149.0","60188","DH-015","13:40:28","","","","","","","","","","","","video 11","","null","[""components/stim/StimVid_Undoing1.mp4""]","null","","","","","","","",""
"","image-slider-response-modified","150","1673239","0.0-150.0","60188","DH-015","13:40:30","","","","","","","","","","","","assessment 0","","2461","components/portraits/StimImgFernandoAlves.PNG","-20","","","","","-20","Fernando Alves","A",""
"","image-slider-response-modified","151","1674089","0.0-151.0","60188","DH-015","13:40:31","","","","","","","","","","","","assessment 1","","846","components/portraits/StimImgHenryFraser.PNG","100","","","","","100","Henry Fraser","A",""
"","image-slider-response-modified","152","1675044","0.0-152.0","60188","DH-015","13:40:32","","","","","","","","","","","","assessment 2","","951","components/portraits/StimImgMiguelAlves.PNG","100","","","","","100","Miguel Alves","A",""
"","image-slider-response-modified","153","1676088","0.0-153.0","60188","DH-015","13:40:33","","","","","","","","","","","","assessment 3","","1040","components/portraits/StimImgSylviaSteinetz.PNG","60","","","","","60","Sylvia Steinetz","A",""
"","image-slider-response-modified","154","1677221","0.0-154.0","60188","DH-015","13:40:34","","","","","","","","","","","","assessment 4","","1129","components/portraits/StimImgElenaAlves.PNG","70","","","","","70","Elena Alves","A",""
"","image-slider-response-modified","155","1678248","0.0-155.0","60188","DH-015","13:40:35","","","","","","","","","","","","assessment 5","","1022","components/portraits/StimImgGraceFraser.PNG","-25","","","","","-25","Grace Fraser","A",""
"","image-slider-response-modified","156","1679195","0.0-156.0","60188","DH-015","13:40:36","","","","","","","","","","","","assessment 6","","943","components/portraits/StimImgFranklinReinhardt.PNG","60","","","","","60","Franklin Reinhardt","A",""
"","image-slider-response-modified","157","1680149","0.0-157.0","60188","DH-015","13:40:37","","","","","","","","","","","","assessment 7","","950","components/portraits/StimImgJonathanFraser.PNG","-60","","","","","-60","Jonathan Fraser","A",""
"","html-keyboard-response","158","1681151","0.0-158.0","60188","DH-015","13:40:38","","","","","","","","","","","","","","null","[""<p style=\""font-size: 36px; width: 1200px; line-height: 40px;\"">Returning to the video...""]","null","","","","","","","",""
"","browser-check","159","1682157","0.0-159.0","60188","DH-015","13:40:39","1470","832","true","chrome","129.0.0","false","Mac OS","true","59.79","true","true","Browser_Check","","","","","","","","","","","",""
"","video-keyboard-response","160","1777290","0.0-160.0","60188","DH-015","13:42:14","","","","","","","","","","","","video 12","","null","[""components/stim/StimVid_Undoing1.mp4""]","null","","","","","","","",""
"","image-slider-response-modified","161","1779519","0.0-161.0","60188","DH-015","13:42:17","","","","","","","","","","","","assessment 0","","2225","components/portraits/StimImgFernandoAlves.PNG","-20","","","","","-20","Fernando Alves","A",""
"","image-slider-response-modified","162","1780214","0.0-162.0","60188","DH-015","13:42:17","","","","","","","","","","","","assessment 1","","691","components/portraits/StimImgHenryFraser.PNG","100","","","","","100","Henry Fraser","A",""
"","image-slider-response-modified","163","1781445","0.0-163.0","60188","DH-015","13:42:19","","","","","","","","","","","","assessment 2","","1226","components/portraits/StimImgMiguelAlves.PNG","100","","","","","100","Miguel Alves","A",""
"","image-slider-response-modified","164","1782463","0.0-164.0","60188","DH-015","13:42:20","","","","","","","","","","","","assessment 3","","1014","components/portraits/StimImgSylviaSteinetz.PNG","60","","","","","60","Sylvia Steinetz","A",""
"","image-slider-response-modified","165","1783379","0.0-165.0","60188","DH-015","13:42:21","","","","","","","","","","","","assessment 4","","913","components/portraits/StimImgElenaAlves.PNG","70","","","","","70","Elena Alves","A",""
"","image-slider-response-modified","166","1784277","0.0-166.0","60188","DH-015","13:42:21","","","","","","","","","","","","assessment 5","","894","components/portraits/StimImgGraceFraser.PNG","-25","","","","","-25","Grace Fraser","A",""
"","image-slider-response-modified","167","1785215","0.0-167.0","60188","DH-015","13:42:22","","","","","","","","","","","","assessment 6","","934","components/portraits/StimImgFranklinReinhardt.PNG","60","","","","","60","Franklin Reinhardt","A",""
"","image-slider-response-modified","168","1786380","0.0-168.0","60188","DH-015","13:42:24","","","","","","","","","","","","assessment 7","","1161","components/portraits/StimImgJonathanFraser.PNG","-60","","","","","-60","Jonathan Fraser","A",""
"","html-keyboard-response","169","1787383","0.0-169.0","60188","DH-015","13:42:25","","","","","","","","","","","","","","null","[""<p style=\""font-size: 36px; width: 1200px; line-height: 40px;\"">Returning to the video...""]","null","","","","","","","",""
"","browser-check","170","1788391","0.0-170.0","60188","DH-015","13:42:26","1470","832","true","chrome","129.0.0","false","Mac OS","true","59.7","true","true","Browser_Check","","","","","","","","","","","",""
"","video-keyboard-response","171","1877681","0.0-171.0","60188","DH-015","13:43:55","","","","","","","","","","","","video 13","","null","[""components/stim/StimVid_Undoing1.mp4""]","null","","","","","","","",""
"","image-slider-response-modified","172","1879883","0.0-172.0","60188","DH-015","13:43:57","","","","","","","","","","","","assessment 0","","2198","components/portraits/StimImgFernandoAlves.PNG","-20","","","","","-20","Fernando Alves","A",""
"","image-slider-response-modified","173","1880627","0.0-173.0","60188","DH-015","13:43:58","","","","","","","","","","","","assessment 1","","740","components/portraits/StimImgHenryFraser.PNG","100","","","","","100","Henry Fraser","A",""
"","image-slider-response-modified","174","1881574","0.0-174.0","60188","DH-015","13:43:59","","","","","","","","","","","","assessment 2","","943","components/portraits/StimImgMiguelAlves.PNG","100","","","","","100","Miguel Alves","A",""
"","image-slider-response-modified","175","1882738","0.0-175.0","60188","DH-015","13:44:0","","","","","","","","","","","","assessment 3","","1161","components/portraits/StimImgSylviaSteinetz.PNG","60","","","","","60","Sylvia Steinetz","A",""
"","image-slider-response-modified","176","1883799","0.0-176.0","60188","DH-015","13:44:1","","","","","","","","","","","","assessment 4","","1056","components/portraits/StimImgElenaAlves.PNG","70","","","","","70","Elena Alves","A",""
"","image-slider-response-modified","177","1884818","0.0-177.0","60188","DH-015","13:44:2","","","","","","","","","","","","assessment 5","","1015","components/portraits/StimImgGraceFraser.PNG","-25","","","","","-25","Grace Fraser","A",""
"","image-slider-response-modified","178","1885676","0.0-178.0","60188","DH-015","13:44:3","","","","","","","","","","","","assessment 6","","853","components/portraits/StimImgFranklinReinhardt.PNG","60","","","","","60","Franklin Reinhardt","A",""
"","image-slider-response-modified","179","1886517","0.0-179.0","60188","DH-015","13:44:4","","","","","","","","","","","","assessment 7","","837","components/portraits/StimImgJonathanFraser.PNG","-60","","","","","-60","Jonathan Fraser","A",""
"","html-keyboard-response","180","1887520","0.0-180.0","60188","DH-015","13:44:5","","","","","","","","","","","","","","null","[""<p style=\""font-size: 36px; width: 1200px; line-height: 40px;\"">Returning to the video...""]","null","","","","","","","",""
"","browser-check","181","1888524","0.0-181.0","60188","DH-015","13:44:6","1470","832","true","chrome","129.0.0","false","Mac OS","true","59.9","true","true","Browser_Check","","","","","","","","","","","",""
"","video-keyboard-response","182","1995883","0.0-182.0","60188","DH-015","13:45:53","","","","","","","","","","","","video 14","","null","[""components/stim/StimVid_Undoing1.mp4""]","null","","","","","","","",""
"","image-slider-response-modified","183","2000600","0.0-183.0","60188","DH-015","13:45:58","","","","","","","","","","","","assessment 0","","4713","components/portraits/StimImgFernandoAlves.PNG","-20","","","","","-20","Fernando Alves","A",""
"","image-slider-response-modified","184","2001569","0.0-184.0","60188","DH-015","13:45:59","","","","","","","","","","","","assessment 1","","965","components/portraits/StimImgHenryFraser.PNG","100","","","","","100","Henry Fraser","A",""
"","image-slider-response-modified","185","2002364","0.0-185.0","60188","DH-015","13:46:0","","","","","","","","","","","","assessment 2","","793","components/portraits/StimImgMiguelAlves.PNG","100","","","","","100","Miguel Alves","A",""
"","image-slider-response-modified","186","2003165","0.0-186.0","60188","DH-015","13:46:0","","","","","","","","","","","","assessment 3","","797","components/portraits/StimImgSylviaSteinetz.PNG","60","","","","","60","Sylvia Steinetz","A",""
"","image-slider-response-modified","187","2004127","0.0-187.0","60188","DH-015","13:46:1","","","","","","","","","","","","assessment 4","","958","components/portraits/StimImgElenaAlves.PNG","70","","","","","70","Elena Alves","A",""
"","image-slider-response-modified","188","2005284","0.0-188.0","60188","DH-015","13:46:2","","","","","","","","","","","","assessment 5","","1153","components/portraits/StimImgGraceFraser.PNG","-25","","","","","-25","Grace Fraser","A",""
"","image-slider-response-modified","189","2006045","0.0-189.0","60188","DH-015","13:46:3","","","","","","","","","","","","assessment 6","","757","components/portraits/StimImgFranklinReinhardt.PNG","60","","","","","60","Franklin Reinhardt","A",""
"","image-slider-response-modified","190","2007007","0.0-190.0","60188","DH-015","13:46:4","","","","","","","","","","","","assessment 7","","959","components/portraits/StimImgJonathanFraser.PNG","-60","","","","","-60","Jonathan Fraser","A",""
"","html-keyboard-response","191","2008011","0.0-191.0","60188","DH-015","13:46:5","","","","","","","","","","","","","","null","[""<p style=\""font-size: 36px; width: 1200px; line-height: 40px;\"">Returning to the video...""]","null","","","","","","","",""
"","browser-check","192","2009008","0.0-192.0","60188","DH-015","13:46:6","1470","832","true","chrome","129.0.0","false","Mac OS","true","60.36","true","true","Browser_Check","","","","","","","","","","","",""
"","video-keyboard-response","193","2082353","0.0-193.0","60188","DH-015","13:47:20","","","","","","","","","","","","video 15","","null","[""components/stim/StimVid_Undoing1.mp4""]","null","","","","","","","",""
"","image-slider-response-modified","194","2085367","0.0-194.0","60188","DH-015","13:47:23","","","","","","","","","","","","assessment 0","","3010","components/portraits/StimImgFernandoAlves.PNG","-20","","","","","-20","Fernando Alves","A",""
"","image-slider-response-modified","195","2086055","0.0-195.0","60188","DH-015","13:47:23","","","","","","","","","","","","assessment 1","","684","components/portraits/StimImgHenryFraser.PNG","100","","","","","100","Henry Fraser","A",""
"","image-slider-response-modified","196","2086864","0.0-196.0","60188","DH-015","13:47:24","","","","","","","","","","","","assessment 2","","805","components/portraits/StimImgMiguelAlves.PNG","100","","","","","100","Miguel Alves","A",""
"","image-slider-response-modified","197","2089065","0.0-197.0","60188","DH-015","13:47:26","","","","","","","","","","","","assessment 3","","2196","components/portraits/StimImgSylviaSteinetz.PNG","60","","","","","60","Sylvia Steinetz","A",""
"","image-slider-response-modified","198","2090408","0.0-198.0","60188","DH-015","13:47:28","","","","","","","","","","","","assessment 4","","1339","components/portraits/StimImgElenaAlves.PNG","70","","","","","70","Elena Alves","A",""
"","image-slider-response-modified","199","2091896","0.0-199.0","60188","DH-015","13:47:29","","","","","","","","","","","","assessment 5","","1483","components/portraits/StimImgGraceFraser.PNG","-25","","","","","-25","Grace Fraser","A",""
"","image-slider-response-modified","200","2093547","0.0-200.0","60188","DH-015","13:47:31","","","","","","","","","","","","assessment 6","","1647","components/portraits/StimImgFranklinReinhardt.PNG","60","","","","","60","Franklin Reinhardt","A",""
"","image-slider-response-modified","201","2095400","0.0-201.0","60188","DH-015","13:47:33","","","","","","","","","","","","assessment 7","","1849","components/portraits/StimImgJonathanFraser.PNG","-60","","","","","-60","Jonathan Fraser","A",""
"","html-keyboard-response","202","2096403","0.0-202.0","60188","DH-015","13:47:34","","","","","","","","","","","","","","null","[""<p style=\""font-size: 36px; width: 1200px; line-height: 40px;\"">Returning to the video...""]","null","","","","","","","",""
"","browser-check","203","2097408","0.0-203.0","60188","DH-015","13:47:35","1470","832","true","chrome","129.0.0","false","Mac OS","true","59.86","true","true","Browser_Check","","","","","","","","","","","",""
"","video-keyboard-response","204","2168634","0.0-204.0","60188","DH-015","13:48:46","","","","","","","","","","","","video 16","","null","[""components/stim/StimVid_Undoing1.mp4""]","null","","","","","","","",""
"","image-slider-response-modified","205","2173422","0.0-205.0","60188","DH-015","13:48:51","","","","","","","","","","","","assessment 0","","4783","components/portraits/StimImgFernandoAlves.PNG","-20","","","","","-20","Fernando Alves","A",""
"","image-slider-response-modified","206","2174523","0.0-206.0","60188","DH-015","13:48:52","","","","","","","","","","","","assessment 1","","1096","components/portraits/StimImgHenryFraser.PNG","100","","","","","100","Henry Fraser","A",""
"","image-slider-response-modified","207","2175606","0.0-207.0","60188","DH-015","13:48:53","","","","","","","","","","","","assessment 2","","1079","components/portraits/StimImgMiguelAlves.PNG","100","","","","","100","Miguel Alves","A",""
"","image-slider-response-modified","208","2176658","0.0-208.0","60188","DH-015","13:48:54","","","","","","","","","","","","assessment 3","","1048","components/portraits/StimImgSylviaSteinetz.PNG","60","","","","","60","Sylvia Steinetz","A",""
"","image-slider-response-modified","209","2177742","0.0-209.0","60188","DH-015","13:48:55","","","","","","","","","","","","assessment 4","","1081","components/portraits/StimImgElenaAlves.PNG","70","","","","","70","Elena Alves","A",""
"","image-slider-response-modified","210","2178827","0.0-210.0","60188","DH-015","13:48:56","","","","","","","","","","","","assessment 5","","1080","components/portraits/StimImgGraceFraser.PNG","-25","","","","","-25","Grace Fraser","A",""
"","image-slider-response-modified","211","2179911","0.0-211.0","60188","DH-015","13:48:57","","","","","","","","","","","","assessment 6","","1080","components/portraits/StimImgFranklinReinhardt.PNG","60","","","","","60","Franklin Reinhardt","A",""
"","image-slider-response-modified","212","2180987","0.0-212.0","60188","DH-015","13:48:58","","","","","","","","","","","","assessment 7","","1072","components/portraits/StimImgJonathanFraser.PNG","-60","","","","","-60","Jonathan Fraser","A",""
"","html-keyboard-response","213","2181991","0.0-213.0","60188","DH-015","13:48:59","","","","","","","","","","","","","","null","[""<p style=\""font-size: 36px; width: 1200px; line-height: 40px;\"">Returning to the video...""]","null","","","","","","","",""
"","browser-check","214","2182991","0.0-214.0","60188","DH-015","13:49:0","1470","832","true","chrome","129.0.0","false","Mac OS","true","60.13","true","true","Browser_Check","","","","","","","","","","","",""
"","preload","215","2249149","0.0-215.0","60188","DH-015","13:50:6","","","","","","","","","","","","Preload","true","","","","false","[]","[]","[]","","","",""
"","video-keyboard-response","216","2269362","0.0-216.0","60188","DH-015","","","","","","","","","","","","","video 17","","null","[""components/stim/StimVid_Undoing1.mp4""]","null","","","","","","","",""
"","video-keyboard-response","217","2320665","0.0-217.0","60188","DH-015","","","","","","","","","","","","","video 18","","null","[""components/stim/StimVid_Undoing2.mp4""]","null","","","","","","","",""
"","image-slider-response-modified","218","2324688","0.0-218.0","60188","DH-015","13:51:22","","","","","","","","","","","","assessment 0","","4018","components/portraits/StimImgFernandoAlves.PNG","-20","","","","","-20","Fernando Alves","A",""
"","image-slider-response-modified","219","2325732","0.0-219.0","60188","DH-015","13:51:23","","","","","","","","","","","","assessment 1","","1040","components/portraits/StimImgHenryFraser.PNG","100","","","","","100","Henry Fraser","A",""
"","image-slider-response-modified","220","2327156","0.0-220.0","60188","DH-015","13:51:24","","","","","","","","","","","","assessment 2","","1419","components/portraits/StimImgMiguelAlves.PNG","100","","","","","100","Miguel Alves","A",""
"","image-slider-response-modified","221","2328548","0.0-221.0","60188","DH-015","13:51:26","","","","","","","","","","","","assessment 3","","1387","components/portraits/StimImgSylviaSteinetz.PNG","60","","","","","60","Sylvia Steinetz","A",""
"","image-slider-response-modified","222","2331387","0.0-222.0","60188","DH-015","13:51:29","","","","","","","","","","","","assessment 4","","2835","components/portraits/StimImgElenaAlves.PNG","70","","","","","70","Elena Alves","A",""
"","image-slider-response-modified","223","2332917","0.0-223.0","60188","DH-015","13:51:30","","","","","","","","","","","","assessment 5","","1525","components/portraits/StimImgGraceFraser.PNG","-25","","","","","-25","Grace Fraser","A",""
"","image-slider-response-modified","224","2334478","0.0-224.0","60188","DH-015","13:51:32","","","","","","","","","","","","assessment 6","","1558","components/portraits/StimImgFranklinReinhardt.PNG","60","","","","","60","Franklin Reinhardt","A",""
"","image-slider-response-modified","225","2336039","0.0-225.0","60188","DH-015","13:51:33","","","","","","","","","","","","assessment 7","","1557","components/portraits/StimImgJonathanFraser.PNG","-60","","","","","-60","Jonathan Fraser","A",""
"","html-keyboard-response","226","2337042","0.0-226.0","60188","DH-015","13:51:34","","","","","","","","","","","","","","null","[""<p style=\""font-size: 36px; width: 1200px; line-height: 40px;\"">Returning to the video...""]","null","","","","","","","",""
"","browser-check","227","2338042","0.0-227.0","60188","DH-015","13:51:35","1470","832","true","chrome","129.0.0","false","Mac OS","true","60.18","true","true","Browser_Check","","","","","","","","","","","",""
"","video-keyboard-response","228","2409275","0.0-228.0","60188","DH-015","13:52:46","","","","","","","","","","","","video18","","null","[""components/stim/StimVid_Undoing2.mp4""]","null","","","","","","","",""
"","image-slider-response-modified","229","2411910","0.0-229.0","60188","DH-015","13:52:49","","","","","","","","","","","","assessment 0","","2630","components/portraits/StimImgFernandoAlves.PNG","-20","","","","","-20","Fernando Alves","A",""
"","image-slider-response-modified","230","2412914","0.0-230.0","60188","DH-015","13:52:50","","","","","","","","","","","","assessment 1","","1000","components/portraits/StimImgHenryFraser.PNG","100","","","","","100","Henry Fraser","A",""
"","image-slider-response-modified","231","2413990","0.0-231.0","60188","DH-015","13:52:51","","","","","","","","","","","","assessment 2","","1072","components/portraits/StimImgMiguelAlves.PNG","100","","","","","100","Miguel Alves","A",""
"","image-slider-response-modified","232","2416887","0.0-232.0","60188","DH-015","13:52:54","","","","","","","","","","","","assessment 3","","2892","components/portraits/StimImgSylviaSteinetz.PNG","60","","","","","60","Sylvia Steinetz","A",""
"","image-slider-response-modified","233","2418812","0.0-233.0","60188","DH-015","13:52:56","","","","","","","","","","","","assessment 4","","1922","components/portraits/StimImgElenaAlves.PNG","70","","","","","70","Elena Alves","A",""
"","image-slider-response-modified","234","2420608","0.0-234.0","60188","DH-015","13:52:58","","","","","","","","","","","","assessment 5","","1791","components/portraits/StimImgGraceFraser.PNG","-25","","","","","-25","Grace Fraser","A",""
"","image-slider-response-modified","235","2422065","0.0-235.0","60188","DH-015","13:52:59","","","","","","","","","","","","assessment 6","","1453","components/portraits/StimImgFranklinReinhardt.PNG","60","","","","","60","Franklin Reinhardt","A",""
"","image-slider-response-modified","236","2423352","0.0-236.0","60188","DH-015","13:53:1","","","","","","","","","","","","assessment 7","","1282","components/portraits/StimImgJonathanFraser.PNG","-60","","","","","-60","Jonathan Fraser","A",""
"","html-keyboard-response","237","2424355","0.0-237.0","60188","DH-015","13:53:2","","","","","","","","","","","","","","null","[""<p style=\""font-size: 36px; width: 1200px; line-height: 40px;\"">Returning to the video...""]","null","","","","","","","",""
"","browser-check","238","2425358","0.0-238.0","60188","DH-015","13:53:3","1470","832","true","chrome","129.0.0","false","Mac OS","true","59.96","true","true","Browser_Check","","","","","","","","","","","",""
"","video-keyboard-response","239","2502698","0.0-239.0","60188","DH-015","13:54:20","","","","","","","","","","","","video19","","null","[""components/stim/StimVid_Undoing2.mp4""]","null","","","","","","","",""
"","image-slider-response-modified","240","2506398","0.0-240.0","60188","DH-015","13:54:24","","","","","","","","","","","","assessment 0","","3696","components/portraits/StimImgFernandoAlves.PNG","-20","","","","","-20","Fernando Alves","A",""
"","image-slider-response-modified","241","2507450","0.0-241.0","60188","DH-015","13:54:25","","","","","","","","","","","","assessment 1","","1048","components/portraits/StimImgHenryFraser.PNG","100","","","","","100","Henry Fraser","A",""
"","image-slider-response-modified","242","2508413","0.0-242.0","60188","DH-015","13:54:26","","","","","","","","","","","","assessment 2","","959","components/portraits/StimImgMiguelAlves.PNG","100","","","","","100","Miguel Alves","A",""
"","image-slider-response-modified","243","2509585","0.0-243.0","60188","DH-015","13:54:27","","","","","","","","","","","","assessment 3","","1169","components/portraits/StimImgSylviaSteinetz.PNG","60","","","","","60","Sylvia Steinetz","A",""
"","image-slider-response-modified","244","2510767","0.0-244.0","60188","DH-015","13:54:28","","","","","","","","","","","","assessment 4","","1177","components/portraits/StimImgElenaAlves.PNG","70","","","","","70","Elena Alves","A",""
"","image-slider-response-modified","245","2512142","0.0-245.0","60188","DH-015","13:54:29","","","","","","","","","","","","assessment 5","","1371","components/portraits/StimImgGraceFraser.PNG","-25","","","","","-25","Grace Fraser","A",""
"","image-slider-response-modified","246","2514221","0.0-246.0","60188","DH-015","13:54:31","","","","","","","","","","","","assessment 6","","2075","components/portraits/StimImgFranklinReinhardt.PNG","60","","","","","60","Franklin Reinhardt","A",""
"","image-slider-response-modified","247","2515710","0.0-247.0","60188","DH-015","13:54:33","","","","","","","","","","","","assessment 7","","1484","components/portraits/StimImgJonathanFraser.PNG","-60","","","","","-60","Jonathan Fraser","A",""
"","html-keyboard-response","248","2516714","0.0-248.0","60188","DH-015","13:54:34","","","","","","","","","","","","","","null","[""<p style=\""font-size: 36px; width: 1200px; line-height: 40px;\"">Returning to the video...""]","null","","","","","","","",""
"","browser-check","249","2517709","0.0-249.0","60188","DH-015","13:54:35","1470","832","true","chrome","129.0.0","false","Mac OS","true","60.48","true","true","Browser_Check","","","","","","","","","","","",""
"","video-keyboard-response","250","2591073","0.0-250.0","60188","DH-015","13:55:48","","","","","","","","","","","","video20","","null","[""components/stim/StimVid_Undoing2.mp4""]","null","","","","","","","",""
"","image-slider-response-modified","251","2593565","0.0-251.0","60188","DH-015","13:55:51","","","","","","","","","","","","assessment 0","","2488","components/portraits/StimImgFernandoAlves.PNG","-20","","","","","-20","Fernando Alves","A",""
"","image-slider-response-modified","252","2594463","0.0-252.0","60188","DH-015","13:55:52","","","","","","","","","","","","assessment 1","","895","components/portraits/StimImgHenryFraser.PNG","100","","","","","100","Henry Fraser","A",""
"","image-slider-response-modified","253","2595280","0.0-253.0","60188","DH-015","13:55:52","","","","","","","","","","","","assessment 2","","813","components/portraits/StimImgMiguelAlves.PNG","100","","","","","100","Miguel Alves","A",""
"","image-slider-response-modified","254","2596138","0.0-254.0","60188","DH-015","13:55:53","","","","","","","","","","","","assessment 3","","854","components/portraits/StimImgSylviaSteinetz.PNG","60","","","","","60","Sylvia Steinetz","A",""
"","image-slider-response-modified","255","2597020","0.0-255.0","60188","DH-015","13:55:54","","","","","","","","","","","","assessment 4","","877","components/portraits/StimImgElenaAlves.PNG","70","","","","","70","Elena Alves","A",""
"","image-slider-response-modified","256","2598024","0.0-256.0","60188","DH-015","13:55:55","","","","","","","","","","","","assessment 5","","999","components/portraits/StimImgGraceFraser.PNG","-25","","","","","-25","Grace Fraser","A",""
"","image-slider-response-modified","257","2599010","0.0-257.0","60188","DH-015","13:55:56","","","","","","","","","","","","assessment 6","","983","components/portraits/StimImgFranklinReinhardt.PNG","60","","","","","60","Franklin Reinhardt","A",""
"","image-slider-response-modified","258","2599974","0.0-258.0","60188","DH-015","13:55:57","","","","","","","","","","","","assessment 7","","959","components/portraits/StimImgJonathanFraser.PNG","-60","","","","","-60","Jonathan Fraser","A",""
"","html-keyboard-response","259","2600977","0.0-259.0","60188","DH-015","13:55:58","","","","","","","","","","","","","","null","[""<p style=\""font-size: 36px; width: 1200px; line-height: 40px;\"">Returning to the video...""]","null","","","","","","","",""
"","browser-check","260","2601976","0.0-260.0","60188","DH-015","13:55:59","1470","832","true","chrome","129.0.0","false","Mac OS","true","60.23","true","true","Browser_Check","","","","","","","","","","","",""
"","video-keyboard-response","261","2683306","0.0-261.0","60188","DH-015","13:57:20","","","","","","","","","","","","video21","","null","[""components/stim/StimVid_Undoing2.mp4""]","null","","","","","","","",""
"","image-slider-response-modified","262","2685700","0.0-262.0","60188","DH-015","13:57:23","","","","","","","","","","","","assessment 0","","2390","components/portraits/StimImgFernandoAlves.PNG","-20","","","","","-20","Fernando Alves","A",""
"","image-slider-response-modified","263","2686502","0.0-263.0","60188","DH-015","13:57:24","","","","","","","","","","","","assessment 1","","798","components/portraits/StimImgHenryFraser.PNG","100","","","","","100","Henry Fraser","A",""
"","image-slider-response-modified","264","2687164","0.0-264.0","60188","DH-015","13:57:24","","","","","","","","","","","","assessment 2","","658","components/portraits/StimImgMiguelAlves.PNG","100","","","","","100","Miguel Alves","A",""
"","image-slider-response-modified","265","2687804","0.0-265.0","60188","DH-015","13:57:25","","","","","","","","","","","","assessment 3","","635","components/portraits/StimImgSylviaSteinetz.PNG","60","","","","","60","Sylvia Steinetz","A",""
"","image-slider-response-modified","266","2688589","0.0-266.0","60188","DH-015","13:57:26","","","","","","","","","","","","assessment 4","","781","components/portraits/StimImgElenaAlves.PNG","70","","","","","70","Elena Alves","A",""
"","image-slider-response-modified","267","2689325","0.0-267.0","60188","DH-015","13:57:27","","","","","","","","","","","","assessment 5","","732","components/portraits/StimImgGraceFraser.PNG","-25","","","","","-25","Grace Fraser","A",""
"","image-slider-response-modified","268","2690094","0.0-268.0","60188","DH-015","13:57:27","","","","","","","","","","","","assessment 6","","765","components/portraits/StimImgFranklinReinhardt.PNG","60","","","","","60","Franklin Reinhardt","A",""
"","image-slider-response-modified","269","2691009","0.0-269.0","60188","DH-015","13:57:28","","","","","","","","","","","","assessment 7","","910","components/portraits/StimImgJonathanFraser.PNG","-60","","","","","-60","Jonathan Fraser","A",""
"","html-keyboard-response","270","2692012","0.0-270.0","60188","DH-015","13:57:29","","","","","","","","","","","","","","null","[""<p style=\""font-size: 36px; width: 1200px; line-height: 40px;\"">Returning to the video...""]","null","","","","","","","",""
"","browser-check","271","2693009","0.0-271.0","60188","DH-015","13:57:30","1470","832","true","chrome","129.0.0","false","Mac OS","true","60.33","true","true","Browser_Check","","","","","","","","","","","",""
"","video-keyboard-response","272","2776197","0.0-272.0","60188","DH-015","13:58:53","","","","","","","","","","","","video22","","null","[""components/stim/StimVid_Undoing2.mp4""]","null","","","","","","","",""
"","image-slider-response-modified","273","2778998","0.0-273.0","60188","DH-015","13:58:56","","","","","","","","","","","","assessment 0","","2796","components/portraits/StimImgFernandoAlves.PNG","-20","","","","","-20","Fernando Alves","A",""
"","image-slider-response-modified","274","2779960","0.0-274.0","60188","DH-015","13:58:57","","","","","","","","","","","","assessment 1","","959","components/portraits/StimImgHenryFraser.PNG","100","","","","","100","Henry Fraser","A",""
"","image-slider-response-modified","275","2780940","0.0-275.0","60188","DH-015","13:58:58","","","","","","","","","","","","assessment 2","","975","components/portraits/StimImgMiguelAlves.PNG","100","","","","","100","Miguel Alves","A",""
"","image-slider-response-modified","276","2781805","0.0-276.0","60188","DH-015","13:58:59","","","","","","","","","","","","assessment 3","","861","components/portraits/StimImgSylviaSteinetz.PNG","60","","","","","60","Sylvia Steinetz","A",""
"","image-slider-response-modified","277","2782663","0.0-277.0","60188","DH-015","13:59:0","","","","","","","","","","","","assessment 4","","853","components/portraits/StimImgElenaAlves.PNG","70","","","","","70","Elena Alves","A",""
"","image-slider-response-modified","278","2783609","0.0-278.0","60188","DH-015","13:59:1","","","","","","","","","","","","assessment 5","","943","components/portraits/StimImgGraceFraser.PNG","-25","","","","","-25","Grace Fraser","A",""
"","image-slider-response-modified","279","2784572","0.0-279.0","60188","DH-015","13:59:2","","","","","","","","","","","","assessment 6","","959","components/portraits/StimImgFranklinReinhardt.PNG","60","","","","","60","Franklin Reinhardt","A",""
"","image-slider-response-modified","280","2785527","0.0-280.0","60188","DH-015","13:59:3","","","","","","","","","","","","assessment 7","","950","components/portraits/StimImgJonathanFraser.PNG","-60","","","","","-60","Jonathan Fraser","A",""
"","html-keyboard-response","281","2786530","0.0-281.0","60188","DH-015","13:59:4","","","","","","","","","","","","","","null","[""<p style=\""font-size: 36px; width: 1200px; line-height: 40px;\"">Returning to the video...""]","null","","","","","","","",""
"","browser-check","282","2787526","0.0-282.0","60188","DH-015","13:59:5","1470","832","true","chrome","129.0.0","false","Mac OS","true","60.4","true","true","Browser_Check","","","","","","","","","","","",""
"","video-keyboard-response","283","2928885","0.0-283.0","60188","DH-015","14:1:26","","","","","","","","","","","","video23","","null","[""components/stim/StimVid_Undoing2.mp4""]","null","","","","","","","",""
"","image-slider-response-modified","284","2931600","0.0-284.0","60188","DH-015","14:1:29","","","","","","","","","","","","assessment 0","","2710","components/portraits/StimImgFernandoAlves.PNG","-20","","","","","-20","Fernando Alves","A",""
"","image-slider-response-modified","285","2932389","0.0-285.0","60188","DH-015","14:1:30","","","","","","","","","","","","assessment 1","","787","components/portraits/StimImgHenryFraser.PNG","100","","","","","100","Henry Fraser","A",""
"","image-slider-response-modified","286","2933252","0.0-286.0","60188","DH-015","14:1:30","","","","","","","","","","","","assessment 2","","860","components/portraits/StimImgMiguelAlves.PNG","100","","","","","100","Miguel Alves","A",""
"","image-slider-response-modified","287","2934150","0.0-287.0","60188","DH-015","14:1:31","","","","","","","","","","","","assessment 3","","894","components/portraits/StimImgSylviaSteinetz.PNG","60","","","","","60","Sylvia Steinetz","A",""
"","image-slider-response-modified","288","2934968","0.0-288.0","60188","DH-015","14:1:32","","","","","","","","","","","","assessment 4","","813","components/portraits/StimImgElenaAlves.PNG","70","","","","","70","Elena Alves","A",""
"","image-slider-response-modified","289","2935866","0.0-289.0","60188","DH-015","14:1:33","","","","","","","","","","","","assessment 5","","894","components/portraits/StimImgGraceFraser.PNG","-25","","","","","-25","Grace Fraser","A",""
"","image-slider-response-modified","290","2936683","0.0-290.0","60188","DH-015","14:1:34","","","","","","","","","","","","assessment 6","","813","components/portraits/StimImgFranklinReinhardt.PNG","60","","","","","60","Franklin Reinhardt","A",""
"","image-slider-response-modified","291","2937572","0.0-291.0","60188","DH-015","14:1:35","","","","","","","","","","","","assessment 7","","885","components/portraits/StimImgJonathanFraser.PNG","-60","","","","","-60","Jonathan Fraser","A",""
"","html-keyboard-response","292","2938575","0.0-292.0","60188","DH-015","14:1:36","","","","","","","","","","","","","","null","[""<p style=\""font-size: 36px; width: 1200px; line-height: 40px;\"">Returning to the video...""]","null","","","","","","","",""
"","browser-check","293","2939592","0.0-293.0","60188","DH-015","14:1:37","1470","832","true","chrome","129.0.0","false","Mac OS","true","60.07","true","true","Browser_Check","","","","","","","","","","","",""
"","video-keyboard-response","294","3014807","0.0-294.0","60188","DH-015","14:2:52","","","","","","","","","","","","video24","","null","[""components/stim/StimVid_Undoing2.mp4""]","null","","","","","","","",""
"","image-slider-response-modified","295","3023144","0.0-295.0","60188","DH-015","14:3:0","","","","","","","","","","","","assessment 0","","8333","components/portraits/StimImgFernandoAlves.PNG","-20","","","","","-20","Fernando Alves","A",""
"","image-slider-response-modified","296","3024479","0.0-296.0","60188","DH-015","14:3:2","","","","","","","","","","","","assessment 1","","1330","components/portraits/StimImgHenryFraser.PNG","100","","","","","100","Henry Fraser","A",""
"","image-slider-response-modified","297","3025385","0.0-297.0","60188","DH-015","14:3:3","","","","","","","","","","","","assessment 2","","902","components/portraits/StimImgMiguelAlves.PNG","100","","","","","100","Miguel Alves","A",""
"","image-slider-response-modified","298","3026290","0.0-298.0","60188","DH-015","14:3:3","","","","","","","","","","","","assessment 3","","901","components/portraits/StimImgSylviaSteinetz.PNG","60","","","","","60","Sylvia Steinetz","A",""
"","image-slider-response-modified","299","3027237","0.0-299.0","60188","DH-015","14:3:4","","","","","","","","","","","","assessment 4","","943","components/portraits/StimImgElenaAlves.PNG","70","","","","","70","Elena Alves","A",""
"","image-slider-response-modified","300","3028281","0.0-300.0","60188","DH-015","14:3:5","","","","","","","","","","","","assessment 5","","1039","components/portraits/StimImgGraceFraser.PNG","-25","","","","","-25","Grace Fraser","A",""
"","image-slider-response-modified","301","3029219","0.0-301.0","60188","DH-015","14:3:6","","","","","","","","","","","","assessment 6","","934","components/portraits/StimImgFranklinReinhardt.PNG","60","","","","","60","Franklin Reinhardt","A",""
"","image-slider-response-modified","302","3030214","0.0-302.0","60188","DH-015","14:3:7","","","","","","","","","","","","assessment 7","","990","components/portraits/StimImgJonathanFraser.PNG","-60","","","","","-60","Jonathan Fraser","A",""
"","html-keyboard-response","303","3031218","0.0-303.0","60188","DH-015","14:3:8","","","","","","","","","","","","","","null","[""<p style=\""font-size: 36px; width: 1200px; line-height: 40px;\"">Returning to the video...""]","null","","","","","","","",""
"","browser-check","304","3032226","0.0-304.0","60188","DH-015","14:3:9","1470","832","true","chrome","129.0.0","false","Mac OS","true","59.64","true","true","Browser_Check","","","","","","","","","","","",""
"","video-keyboard-response","305","3131354","0.0-305.0","60188","DH-015","14:4:49","","","","","","","","","","","","video25","","null","[""components/stim/StimVid_Undoing2.mp4""]","null","","","","","","","",""
"","image-slider-response-modified","306","3133954","0.0-306.0","60188","DH-015","14:4:51","","","","","","","","","","","","assessment 0","","2596","components/portraits/StimImgFernandoAlves.PNG","-20","","","","","-20","Fernando Alves","A",""
"","image-slider-response-modified","307","3134740","0.0-307.0","60188","DH-015","14:4:52","","","","","","","","","","","","assessment 1","","785","components/portraits/StimImgHenryFraser.PNG","100","","","","","100","Henry Fraser","A",""
"","image-slider-response-modified","308","3135566","0.0-308.0","60188","DH-015","14:4:53","","","","","","","","","","","","assessment 2","","822","components/portraits/StimImgMiguelAlves.PNG","100","","","","","100","Miguel Alves","A",""
"","image-slider-response-modified","309","3136448","0.0-309.0","60188","DH-015","14:4:54","","","","","","","","","","","","assessment 3","","879","components/portraits/StimImgSylviaSteinetz.PNG","60","","","","","60","Sylvia Steinetz","A",""
"","image-slider-response-modified","310","3137273","0.0-310.0","60188","DH-015","14:4:54","","","","","","","","","","","","assessment 4","","821","components/portraits/StimImgElenaAlves.PNG","70","","","","","70","Elena Alves","A",""
"","image-slider-response-modified","311","3137944","0.0-311.0","60188","DH-015","14:4:55","","","","","","","","","","","","assessment 5","","667","components/portraits/StimImgGraceFraser.PNG","-25","","","","","-25","Grace Fraser","A",""
"","image-slider-response-modified","312","3138656","0.0-312.0","60188","DH-015","14:4:56","","","","","","","","","","","","assessment 6","","708","components/portraits/StimImgFranklinReinhardt.PNG","60","","","","","60","Franklin Reinhardt","A",""
"","image-slider-response-modified","313","3139425","0.0-313.0","60188","DH-015","14:4:57","","","","","","","","","","","","assessment 7","","764","components/portraits/StimImgJonathanFraser.PNG","-60","","","","","-60","Jonathan Fraser","A",""
"","html-keyboard-response","314","3140428","0.0-314.0","60188","DH-015","14:4:58","","","","","","","","","","","","","","null","[""<p style=\""font-size: 36px; width: 1200px; line-height: 40px;\"">Returning to the video...""]","null","","","","","","","",""
"","browser-check","315","3141426","0.0-315.0","60188","DH-015","14:4:59","1470","832","true","chrome","129.0.0","false","Mac OS","true","60.27","true","true","Browser_Check","","","","","","","","","","","",""
"","video-keyboard-response","316","3212650","0.0-316.0","60188","DH-015","14:6:10","","","","","","","","","","","","video26","","null","[""components/stim/StimVid_Undoing2.mp4""]","null","","","","","","","",""
"","image-slider-response-modified","317","3215257","0.0-317.0","60188","DH-015","14:6:12","","","","","","","","","","","","assessment 0","","2603","components/portraits/StimImgFernandoAlves.PNG","-20","","","","","-20","Fernando Alves","A",""
"","image-slider-response-modified","318","3216236","0.0-318.0","60188","DH-015","14:6:13","","","","","","","","","","","","assessment 1","","975","components/portraits/StimImgHenryFraser.PNG","100","","","","","100","Henry Fraser","A",""
"","image-slider-response-modified","319","3217401","0.0-319.0","60188","DH-015","14:6:15","","","","","","","","","","","","assessment 2","","1160","components/portraits/StimImgMiguelAlves.PNG","100","","","","","100","Miguel Alves","A",""
"","image-slider-response-modified","320","3218411","0.0-320.0","60188","DH-015","14:6:16","","","","","","","","","","","","assessment 3","","1006","components/portraits/StimImgSylviaSteinetz.PNG","60","","","","","60","Sylvia Steinetz","A",""
"","image-slider-response-modified","321","3219350","0.0-321.0","60188","DH-015","14:6:17","","","","","","","","","","","","assessment 4","","935","components/portraits/StimImgElenaAlves.PNG","70","","","","","70","Elena Alves","A",""
"","image-slider-response-modified","322","3220184","0.0-322.0","60188","DH-015","14:6:17","","","","","","","","","","","","assessment 5","","829","components/portraits/StimImgGraceFraser.PNG","-25","","","","","-25","Grace Fraser","A",""
"","image-slider-response-modified","323","3220960","0.0-323.0","60188","DH-015","14:6:18","","","","","","","","","","","","assessment 6","","772","components/portraits/StimImgFranklinReinhardt.PNG","60","","","","","60","Franklin Reinhardt","A",""
"","image-slider-response-modified","324","3221817","0.0-324.0","60188","DH-015","14:6:19","","","","","","","","","","","","assessment 7","","853","components/portraits/StimImgJonathanFraser.PNG","-60","","","","","-60","Jonathan Fraser","A",""
"","html-keyboard-response","325","3222820","0.0-325.0","60188","DH-015","14:6:20","","","","","","","","","","","","","","null","[""<p style=\""font-size: 36px; width: 1200px; line-height: 40px;\"">Returning to the video...""]","null","","","","","","","",""
"","browser-check","326","3223827","0.0-326.0","60188","DH-015","14:6:21","1470","832","true","chrome","129.0.0","false","Mac OS","true","59.78","true","true","Browser_Check","","","","","","","","","","","",""
"","video-keyboard-response","327","3299057","0.0-327.0","60188","DH-015","14:7:36","","","","","","","","","","","","video27","","null","[""components/stim/StimVid_Undoing2.mp4""]","null","","","","","","","",""
"","image-slider-response-modified","328","3302344","0.0-328.0","60188","DH-015","14:7:40","","","","","","","","","","","","assessment 0","","3283","components/portraits/StimImgFernandoAlves.PNG","-20","","","","","-20","Fernando Alves","A",""
"","image-slider-response-modified","329","3303144","0.0-329.0","60188","DH-015","14:7:40","","","","","","","","","","","","assessment 1","","796","components/portraits/StimImgHenryFraser.PNG","100","","","","","100","Henry Fraser","A",""
"","image-slider-response-modified","330","3303824","0.0-330.0","60188","DH-015","14:7:41","","","","","","","","","","","","assessment 2","","676","components/portraits/StimImgMiguelAlves.PNG","100","","","","","100","Miguel Alves","A",""
"","image-slider-response-modified","331","3304674","0.0-331.0","60188","DH-015","14:7:42","","","","","","","","","","","","assessment 3","","846","components/portraits/StimImgSylviaSteinetz.PNG","60","","","","","60","Sylvia Steinetz","A",""
"","image-slider-response-modified","332","3305596","0.0-332.0","60188","DH-015","14:7:43","","","","","","","","","","","","assessment 4","","918","components/portraits/StimImgElenaAlves.PNG","70","","","","","70","Elena Alves","A",""
"","image-slider-response-modified","333","3306437","0.0-333.0","60188","DH-015","14:7:44","","","","","","","","","","","","assessment 5","","837","components/portraits/StimImgGraceFraser.PNG","-25","","","","","-25","Grace Fraser","A",""
"","image-slider-response-modified","334","3307376","0.0-334.0","60188","DH-015","14:7:45","","","","","","","","","","","","assessment 6","","935","components/portraits/StimImgFranklinReinhardt.PNG","60","","","","","60","Franklin Reinhardt","A",""
"","image-slider-response-modified","335","3308290","0.0-335.0","60188","DH-015","14:7:45","","","","","","","","","","","","assessment 7","","910","components/portraits/StimImgJonathanFraser.PNG","-60","","","","","-60","Jonathan Fraser","A",""
"","html-keyboard-response","336","3309293","0.0-336.0","60188","DH-015","14:7:46","","","","","","","","","","","","","","null","[""<p style=\""font-size: 36px; width: 1200px; line-height: 40px;\"">Returning to the video...""]","null","","","","","","","",""
"","browser-check","337","3310294","0.0-337.0","60188","DH-015","14:7:47","1470","832","true","chrome","129.0.0","false","Mac OS","true","60.15","true","true","Browser_Check","","","","","","","","","","","",""
"","video-keyboard-response","338","3413667","0.0-338.0","60188","DH-015","14:9:31","","","","","","","","","","","","video28","","null","[""components/stim/StimVid_Undoing2.mp4""]","null","","","","","","","",""
"","image-slider-response-modified","339","3416233","0.0-339.0","60188","DH-015","14:9:33","","","","","","","","","","","","assessment 0","","2562","components/portraits/StimImgFernandoAlves.PNG","-20","","","","","-20","Fernando Alves","A",""
"","image-slider-response-modified","340","3417090","0.0-340.0","60188","DH-015","14:9:34","","","","","","","","","","","","assessment 1","","854","components/portraits/StimImgHenryFraser.PNG","100","","","","","100","Henry Fraser","A",""
"","image-slider-response-modified","341","3417883","0.0-341.0","60188","DH-015","14:9:35","","","","","","","","","","","","assessment 2","","789","components/portraits/StimImgMiguelAlves.PNG","100","","","","","100","Miguel Alves","A",""
"","image-slider-response-modified","342","3418490","0.0-342.0","60188","DH-015","14:9:36","","","","","","","","","","","","assessment 3","","603","components/portraits/StimImgSylviaSteinetz.PNG","60","","","","","60","Sylvia Steinetz","A",""
"","image-slider-response-modified","343","3419129","0.0-343.0","60188","DH-015","14:9:36","","","","","","","","","","","","assessment 4","","635","components/portraits/StimImgElenaAlves.PNG","70","","","","","70","Elena Alves","A",""
"","image-slider-response-modified","344","3419833","0.0-344.0","60188","DH-015","14:9:37","","","","","","","","","","","","assessment 5","","699","components/portraits/StimImgGraceFraser.PNG","-25","","","","","-25","Grace Fraser","A",""
"","image-slider-response-modified","345","3420488","0.0-345.0","60188","DH-015","14:9:38","","","","","","","","","","","","assessment 6","","651","components/portraits/StimImgFranklinReinhardt.PNG","60","","","","","60","Franklin Reinhardt","A",""
"","image-slider-response-modified","346","3421475","0.0-346.0","60188","DH-015","14:9:39","","","","","","","","","","","","assessment 7","","983","components/portraits/StimImgJonathanFraser.PNG","-60","","","","","-60","Jonathan Fraser","A",""
"","html-keyboard-response","347","3422478","0.0-347.0","60188","DH-015","14:9:40","","","","","","","","","","","","","","null","[""<p style=\""font-size: 36px; width: 1200px; line-height: 40px;\"">Returning to the video...""]","null","","","","","","","",""
"","browser-check","348","3423477","0.0-348.0","60188","DH-015","14:9:41","1470","832","true","chrome","129.0.0","false","Mac OS","true","60.24","true","true","Browser_Check","","","","","","","","","","","",""
"","video-keyboard-response","349","3500822","0.0-349.0","60188","DH-015","14:10:58","","","","","","","","","","","","video29","","null","[""components/stim/StimVid_Undoing2.mp4""]","null","","","","","","","",""
"","image-slider-response-modified","350","3554126","0.0-350.0","60188","DH-015","14:11:51","","","","","","","","","","","","assessment 0","","53300","components/portraits/StimImgFernandoAlves.PNG","-20","","","","","-20","Fernando Alves","A",""
"","image-slider-response-modified","351","3554953","0.0-351.0","60188","DH-015","14:11:52","","","","","","","","","","","","assessment 1","","823","components/portraits/StimImgHenryFraser.PNG","100","","","","","100","Henry Fraser","A",""
"","image-slider-response-modified","352","3555737","0.0-352.0","60188","DH-015","14:11:53","","","","","","","","","","","","assessment 2","","779","components/portraits/StimImgMiguelAlves.PNG","100","","","","","100","Miguel Alves","A",""
"","image-slider-response-modified","353","3556384","0.0-353.0","60188","DH-015","14:11:54","","","","","","","","","","","","assessment 3","","643","components/portraits/StimImgSylviaSteinetz.PNG","60","","","","","60","Sylvia Steinetz","A",""
"","image-slider-response-modified","354","3556926","0.0-354.0","60188","DH-015","14:11:54","","","","","","","","","","","","assessment 4","","538","components/portraits/StimImgElenaAlves.PNG","70","","","","","70","Elena Alves","A",""
"","image-slider-response-modified","355","3557477","0.0-355.0","60188","DH-015","14:11:55","","","","","","","","","","","","assessment 5","","547","components/portraits/StimImgGraceFraser.PNG","-25","","","","","-25","Grace Fraser","A",""
"","image-slider-response-modified","356","3558075","0.0-356.0","60188","DH-015","14:11:55","","","","","","","","","","","","assessment 6","","594","components/portraits/StimImgFranklinReinhardt.PNG","60","","","","","60","Franklin Reinhardt","A",""
"","image-slider-response-modified","357","3558722","0.0-357.0","60188","DH-015","14:11:56","","","","","","","","","","","","assessment 7","","642","components/portraits/StimImgJonathanFraser.PNG","-60","","","","","-60","Jonathan Fraser","A",""
"","html-keyboard-response","358","3559725","0.0-358.0","60188","DH-015","14:11:57","","","","","","","","","","","","","","null","[""<p style=\""font-size: 36px; width: 1200px; line-height: 40px;\"">Returning to the video...""]","null","","","","","","","",""
"","browser-check","359","3560727","0.0-359.0","60188","DH-015","14:11:58","1470","832","true","chrome","129.0.0","false","Mac OS","true","60.06","true","true","Browser_Check","","","","","","","","","","","",""
"","video-keyboard-response","360","3639916","0.0-360.0","60188","DH-015","14:13:17","","","","","","","","","","","","video30","","null","[""components/stim/StimVid_Undoing2.mp4""]","null","","","","","","","",""
"","image-slider-response-modified","361","3641975","0.0-361.0","60188","DH-015","14:13:19","","","","","","","","","","","","assessment 0","","2055","components/portraits/StimImgFernandoAlves.PNG","-20","","","","","-20","Fernando Alves","A",""
"","image-slider-response-modified","362","3642978","0.0-362.0","60188","DH-015","14:13:20","","","","","","","","","","","","assessment 1","","998","components/portraits/StimImgHenryFraser.PNG","100","","","","","100","Henry Fraser","A",""
"","image-slider-response-modified","363","3644151","0.0-363.0","60188","DH-015","14:13:21","","","","","","","","","","","","assessment 2","","1169","components/portraits/StimImgMiguelAlves.PNG","100","","","","","100","Miguel Alves","A",""
"","image-slider-response-modified","364","3645429","0.0-364.0","60188","DH-015","14:13:23","","","","","","","","","","","","assessment 3","","1274","components/portraits/StimImgSylviaSteinetz.PNG","60","","","","","60","Sylvia Steinetz","A",""
"","image-slider-response-modified","365","3647201","0.0-365.0","60188","DH-015","14:13:24","","","","","","","","","","","","assessment 4","","1767","components/portraits/StimImgElenaAlves.PNG","70","","","","","70","Elena Alves","A",""
"","image-slider-response-modified","366","3648689","0.0-366.0","60188","DH-015","14:13:26","","","","","","","","","","","","assessment 5","","1484","components/portraits/StimImgGraceFraser.PNG","-25","","","","","-25","Grace Fraser","A",""
"","image-slider-response-modified","367","3650226","0.0-367.0","60188","DH-015","14:13:27","","","","","","","","","","","","assessment 6","","1532","components/portraits/StimImgFranklinReinhardt.PNG","60","","","","","60","Franklin Reinhardt","A",""
"","image-slider-response-modified","368","3651301","0.0-368.0","60188","DH-015","14:13:28","","","","","","","","","","","","assessment 7","","1071","components/portraits/StimImgJonathanFraser.PNG","-60","","","","","-60","Jonathan Fraser","A",""
"","html-keyboard-response","369","3652304","0.0-369.0","60188","DH-015","14:13:29","","","","","","","","","","","","","","null","[""<p style=\""font-size: 36px; width: 1200px; line-height: 40px;\"">Returning to the video...""]","null","","","","","","","",""
"","browser-check","370","3653311","0.0-370.0","60188","DH-015","14:13:31","1470","832","true","chrome","129.0.0","false","Mac OS","true","59.76","true","true","Browser_Check","","","","","","","","","","","",""
"","video-keyboard-response","371","3722681","0.0-371.0","60188","DH-015","14:14:40","","","","","","","","","","","","video31","","null","[""components/stim/StimVid_Undoing2.mp4""]","null","","","","","","","",""
"","image-slider-response-modified","372","3725484","0.0-372.0","60188","DH-015","14:14:43","","","","","","","","","","","","assessment 0","","2799","components/portraits/StimImgFernandoAlves.PNG","-20","","","","","-20","Fernando Alves","A",""
"","image-slider-response-modified","373","3726204","0.0-373.0","60188","DH-015","14:14:43","","","","","","","","","","","","assessment 1","","716","components/portraits/StimImgHenryFraser.PNG","100","","","","","100","Henry Fraser","A",""
"","image-slider-response-modified","374","3726811","0.0-374.0","60188","DH-015","14:14:44","","","","","","","","","","","","assessment 2","","603","components/portraits/StimImgMiguelAlves.PNG","100","","","","","100","Miguel Alves","A",""
"","image-slider-response-modified","375","3727328","0.0-375.0","60188","DH-015","14:14:45","","","","","","","","","","","","assessment 3","","513","components/portraits/StimImgSylviaSteinetz.PNG","60","","","","","60","Sylvia Steinetz","A",""
"","image-slider-response-modified","376","3727992","0.0-376.0","60188","DH-015","14:14:45","","","","","","","","","","","","assessment 4","","659","components/portraits/StimImgElenaAlves.PNG","70","","","","","70","Elena Alves","A",""
"","image-slider-response-modified","377","3728582","0.0-377.0","60188","DH-015","14:14:46","","","","","","","","","","","","assessment 5","","586","components/portraits/StimImgGraceFraser.PNG","-25","","","","","-25","Grace Fraser","A",""
"","image-slider-response-modified","378","3729278","0.0-378.0","60188","DH-015","14:14:46","","","","","","","","","","","","assessment 6","","692","components/portraits/StimImgFranklinReinhardt.PNG","60","","","","","60","Franklin Reinhardt","A",""
"","image-slider-response-modified","379","3730038","0.0-379.0","60188","DH-015","14:14:47","","","","","","","","","","","","assessment 7","","756","components/portraits/StimImgJonathanFraser.PNG","-60","","","","","-60","Jonathan Fraser","A",""
"","html-keyboard-response","380","3731041","0.0-380.0","60188","DH-015","14:14:48","","","","","","","","","","","","","","null","[""<p style=\""font-size: 36px; width: 1200px; line-height: 40px;\"">Returning to the video...""]","null","","","","","","","",""
"","browser-check","381","3732027","0.0-381.0","60188","DH-015","14:14:49","1470","832","true","chrome","129.0.0","false","Mac OS","true","61.01","true","true","Browser_Check","","","","","","","","","","","",""
"","video-keyboard-response","382","3821323","0.0-382.0","60188","DH-015","14:16:19","","","","","","","","","","","","video32","","null","[""components/stim/StimVid_Undoing2.mp4""]","null","","","","","","","",""
"","image-slider-response-modified","383","3824173","0.0-383.0","60188","DH-015","14:16:21","","","","","","","","","","","","assessment 0","","2846","components/portraits/StimImgFernandoAlves.PNG","-20","","","","","-20","Fernando Alves","A",""
"","image-slider-response-modified","384","3824915","0.0-384.0","60188","DH-015","14:16:22","","","","","","","","","","","","assessment 1","","739","components/portraits/StimImgHenryFraser.PNG","100","","","","","100","Henry Fraser","A",""
"","image-slider-response-modified","385","3825497","0.0-385.0","60188","DH-015","14:16:23","","","","","","","","","","","","assessment 2","","578","components/portraits/StimImgMiguelAlves.PNG","100","","","","","100","Miguel Alves","A",""
"","image-slider-response-modified","386","3826263","0.0-386.0","60188","DH-015","14:16:23","","","","","","","","","","","","assessment 3","","764","components/portraits/StimImgSylviaSteinetz.PNG","60","","","","","60","Sylvia Steinetz","A",""
"","image-slider-response-modified","387","3826990","0.0-387.0","60188","DH-015","14:16:24","","","","","","","","","","","","assessment 4","","725","components/portraits/StimImgElenaAlves.PNG","70","","","","","70","Elena Alves","A",""
"","image-slider-response-modified","388","3827651","0.0-388.0","60188","DH-015","14:16:25","","","","","","","","","","","","assessment 5","","659","components/portraits/StimImgGraceFraser.PNG","-25","","","","","-25","Grace Fraser","A",""
"","image-slider-response-modified","389","3828483","0.0-389.0","60188","DH-015","14:16:26","","","","","","","","","","","","assessment 6","","829","components/portraits/StimImgFranklinReinhardt.PNG","60","","","","","60","Franklin Reinhardt","A",""
"","image-slider-response-modified","390","3829500","0.0-390.0","60188","DH-015","14:16:27","","","","","","","","","","","","assessment 7","","1016","components/portraits/StimImgJonathanFraser.PNG","-60","","","","","-60","Jonathan Fraser","A",""
"","html-keyboard-response","391","3830501","0.0-391.0","60188","DH-015","14:16:28","","","","","","","","","","","","","","null","[""<p style=\""font-size: 36px; width: 1200px; line-height: 40px;\"">Returning to the video...""]","null","","","","","","","",""
"","browser-check","392","3831496","0.0-392.0","60188","DH-015","14:16:29","1470","832","true","chrome","129.0.0","false","Mac OS","true","60.37","true","true","Browser_Check","","","","","","","","","","","",""
"","video-keyboard-response","393","3900838","0.0-393.0","60188","DH-015","14:17:38","","","","","","","","","","","","video33","","null","[""components/stim/StimVid_Undoing2.mp4""]","null","","","","","","","",""
"","image-slider-response-modified","394","3904760","0.0-394.0","60188","DH-015","14:17:42","","","","","","","","","","","","assessment 0","","3918","components/portraits/StimImgFernandoAlves.PNG","-20","","","","","-20","Fernando Alves","A",""
"","image-slider-response-modified","395","3905593","0.0-395.0","60188","DH-015","14:17:43","","","","","","","","","","","","assessment 1","","830","components/portraits/StimImgHenryFraser.PNG","100","","","","","100","Henry Fraser","A",""
"","image-slider-response-modified","396","3906296","0.0-396.0","60188","DH-015","14:17:43","","","","","","","","","","","","assessment 2","","699","components/portraits/StimImgMiguelAlves.PNG","100","","","","","100","Miguel Alves","A",""
"","image-slider-response-modified","397","3907131","0.0-397.0","60188","DH-015","14:17:44","","","","","","","","","","","","assessment 3","","830","components/portraits/StimImgSylviaSteinetz.PNG","60","","","","","60","Sylvia Steinetz","A",""
"","image-slider-response-modified","398","3907980","0.0-398.0","60188","DH-015","14:17:45","","","","","","","","","","","","assessment 4","","846","components/portraits/StimImgElenaAlves.PNG","70","","","","","70","Elena Alves","A",""
"","image-slider-response-modified","399","3910698","0.0-399.0","60188","DH-015","14:17:48","","","","","","","","","","","","assessment 5","","2714","components/portraits/StimImgGraceFraser.PNG","-25","","","","","-25","Grace Fraser","A",""
"","image-slider-response-modified","400","3911823","0.0-400.0","60188","DH-015","14:17:49","","","","","","","","","","","","assessment 6","","1120","components/portraits/StimImgFranklinReinhardt.PNG","60","","","","","60","Franklin Reinhardt","A",""
