"trial_id","trial_type","trial_index","time_elapsed","internal_node_id","subject_id","break_id","time","width","height","webaudio","browser","browser_version","mobile","os","fullscreen","vsync_rate","webcam","microphone","task","success","rt","stimulus","response","timeout","failed_images","failed_audio","failed_video","slider_start","character","label_condition","question_order"
"pavlovia_init","pavlovia","0","944","0.0-0.0","60671","DH-010","15:15:33","","","","","","","","","","","","","","","","","","","","","","","",""
"","browser-check","1","1943","0.0-1.0","60671","DH-010","15:15:34","1536","730","true","chrome","129.0.0","false","Windows 10","true","60.89","true","false","Browser_Check","","","","","","","","","","","",""
"","fullscreen","2","133771","0.0-2.0","60671","DH-010","15:17:46","","","","","","","","","","","","Fullscreen","true","130813","","","","","","","","","",""
"","html-keyboard-response","3","145628","0.0-3.0","60671","DH-010","15:17:58","","","","","","","","","","","","Instruction","","11853","[""<p style=\""font-size: 36px; width: 1200px; line-height: 40px;\"">During this experiment, you will watch an episode of a publicly broadcasted murder mystery television show.<br><br>It contains adult themes and graphic language. While the video will portray a character accused of a violent crime, as well as verbal descriptions of the crime, <strong>violence will not be shown</strong>, nor will any other graphic visual content.<br><br><br>If you are not comfortable with continuing, please exit this experiment now.<br><br><br><br>Otherwise, please press the <strong>SPACE BAR</strong> to continue.</p>""]"," ","","","","","","","",""
"","preload","4","147133","0.0-4.0","60671","DH-010","15:17:59","","","","","","","","","","","","Preload","true","","","","false","[]","[]","[]","","","",""
"","image-button-response-modified","5","189200","0.0-5.0","60671","DH-010","15:18:41","","","","","","","","","","","","Consent","","42062","components/consent/SONA.png","0","","","","","","","",""
"","html-keyboard-response","6","190421","0.0-6.0","60671","DH-010","15:18:42","","","","","","","","","","","","Instr_Task","","1220","<p style=""font-size: 36px; width: 1200px; line-height: 40px;"">Thank you for agreeing to participate in this experiment! <br><br><br><br> Please press the <strong>SPACE BAR</strong> to continue</p>"," ","","","","","","","",""
"","html-keyboard-response","7","195606","0.0-7.0","60671","DH-010","15:18:48","","","","","","","","","","","","Instr_Task","","5184","<p style=""font-size: 36px; width: 1200px; line-height: 40px;"">Before we begin, please be sure that you are in a good space to complete the experiment. This space should be: <br><br><br><br> <strong>Comfortable <br><br> Distraction-free <br><br> Available for the next 60 minutes</strong> <br><br><br><br><br> Please press the <strong>SPACE BAR</strong> to continue</p>"," ","","","","","","","",""
"","html-keyboard-response","8","197998","0.0-8.0","60671","DH-010","15:18:50","","","","","","","","","","","","Instr_Task","","2390","<p style=""font-size: 36px; width: 1200px; line-height: 40px;""><strong>Please give your full attention to the experiment. This includes:</strong> <br><br><br><br> Closing or minimizing other programs on your computer <br><br> Silencing your phone or placing it somewhere it will not be distracting <br><br> Testing that your audio is working and set to a comfortable volume that you can clearly hear <br><br> Not completing this experiment with others present <br><br><br><br><br> Please press the <strong>SPACE BAR</strong> to continue</p>"," ","","","","","","","",""
"","html-keyboard-response","9","202057","0.0-9.0","60671","DH-010","15:18:54","","","","","","","","","","","","Instr_Task","","4058","<p style=""font-size: 36px; width: 1200px; line-height: 40px;"">You will watch 45 minutes of a crime mystery drama in which one character is suspected of having murdered another.<br><br><br>We will present background information about the characters of the show and the surrounding context before the episode begins.<br><br><br><br> Please press the <strong>SPACE BAR</strong> to continue</p>"," ","","","","","","","",""
"","html-keyboard-response","10","212398","0.0-10.0","60671","DH-010","15:19:4","","","","","","","","","","","","Instr_Task","","10340","<p style=""font-size: 36px; width: 1200px; line-height: 40px;"">The video will intermittently pause while you watch to assess how certain <strong>you</strong> are that different characters in the show are guilty or innocent of having committed the murder.<br><br><br><br> Please press the <strong>SPACE BAR</strong> to continue</p>"," ","","","","","","","",""
"","html-keyboard-response","11","216686","0.0-11.0","60671","DH-010","15:19:9","","","","","","","","","","","","Instr_Task","","4286","<p style=""font-size: 36px; width: 1200px; line-height: 40px;"">These certainty assessments tend to be flexible and may shift upon hearing something that a character says or seeing something that a character does or events that occur when a character is not on screen.<br><br><br>Some of this information may influence your assessments only slightly while other information may influence your assessments a great deal.<br><br><br>When prompted, please update your rating of how certain you are of each character's innocence or guilt at that moment in time. <br><br><br> Please try to be as precise as you can.<br><br><br><br> Please press the <strong>SPACE BAR</strong> to continue</p>"," ","","","","","","","",""
"","html-keyboard-response","12","225297","0.0-12.0","60671","DH-010","15:19:17","","","","","","","","","","","","Instr_Task","","8611","<p style=""font-size: 36px; width: 1200px; line-height: 40px;"">These certainty assessments will be assessed on a continuous scale. <br><br><br> The scale ranges from 100% certain that a character is guilty to 100% certain that a character is innocent.<br><br><br>Leaving the scale in the middle (i.e., 0% certain) would indicate that you are completely uncertain whether a character is innocent or guilt.<br><br><br><br> Please press the <strong>SPACE BAR</strong> to continue</p>"," ","","","","","","","",""
"","html-keyboard-response","13","230072","0.0-13.0","60671","DH-010","15:19:22","","","","","","","","","","","","Instr_Task","","4774","<p style=""font-size: 36px; width: 1200px; line-height: 40px;"">After your first rating, we will mark the scale where you had last rated that character to hopefully make updating your certainty rating easier. <br><br><br>A progress bar at the top will show the order in which you will assess the characters.<br><br><br>A portrait in the center of the screen will identify which character you are assessing at that moment.<br><br><br>Let's look at an example of what this looks like.<br><br><br><br> Please press the <strong>SPACE BAR</strong> to continue</p>"," ","","","","","","","",""
"","preload","14","231954","0.0-14.0","60671","DH-010","15:19:24","","","","","","","","","","","","Preload","true","","","","false","[]","[]","[]","","","",""
"","image-slider-response-modified","15","244722","0.0-15.0","60671","DH-010","15:19:37","","","","","","","","","","","","Practice","","12753","components/portraits/StimImgSylviaSteinetz.PNG","-41","","","","","0","Sylvia Steinetz","A",""
"","image-slider-response-modified","16","262386","0.0-16.0-0.0-0.0","60671","DH-010","15:19:54","","","","","","","","","","","","PracticeFailure","","17661","components/portraits/StimImgSylviaSteinetz.PNG","50","","","","","0","Sylvia Steinetz","A",""
"","html-keyboard-response","17","265115","0.0-17.0","60671","DH-010","15:19:57","","","","","","","","","","","","PracticeSuccess","","2727","[""<p style=\""font-size: 36px; width: 1200px; line-height: 40px;\"">Great! If you have any questions that you must have answered before continuing, please contact study staff via the recruitment platform.<br><br><br>If you are ready to start, we will present the background information.<br><br><br><br> Please press the <strong>SPACE BAR</strong> to continue</p>""]"," ","","","","","","","",""
"","image-keyboard-response-modified","18","276209","0.0-18.0","60671","DH-010","15:20:8","","","","","","","","","","","","Background","","11089","[""components/portraits/StimImgJonathanFraser.PNG"",""components/portraits/StimImgElenaAlves.PNG""]"," ","","","","","","","",""
"","image-keyboard-response-modified","19","287240","0.0-19.0","60671","DH-010","15:20:19","","","","","","","","","","","","Background","","11028","[""components/portraits/StimImgJonathanFraser.PNG"",""components/portraits/StimImgElenaAlves.PNG""]"," ","","","","","","","",""
"","image-keyboard-response-modified","20","296877","0.0-20.0","60671","DH-010","15:20:29","","","","","","","","","","","","Background","","9635","[""components/portraits/StimImgHenryFraser.PNG"",""components/portraits/StimImgMiguelAlves.PNG""]"," ","","","","","","","",""
"","image-keyboard-response-modified","21","306468","0.0-21.0","60671","DH-010","15:20:39","","","","","","","","","","","","Background","","9589","[""components/portraits/StimImgGraceFraser.PNG"",""components/portraits/StimImgFernandoAlves.PNG""]"," ","","","","","","","",""
"","image-keyboard-response-modified","22","332059","0.0-22.0","60671","DH-010","15:21:4","","","","","","","","","","","","Background","","25589","[""components/portraits/StimImgFranklinReinhardt.PNG"",""components/portraits/StimImgSylviaSteinetz.PNG""]"," ","","","","","","","",""
"","image-keyboard-response-modified","23","347234","0.0-23.0","60671","DH-010","15:21:19","","","","","","","","","","","","Background","","15173","[""components/portraits/StimImgHaleyFitzgerald.PNG"",""components/portraits/StimImgRobertAdelman.PNG""]"," ","","","","","","","",""
"","image-keyboard-response-modified","24","353331","0.0-24.0","60671","DH-010","15:21:25","","","","","","","","","","","","Background","","6095","[""components/portraits/StimImgJoeMendoza.PNG""]"," ","","","","","","","",""
"","html-keyboard-response","25","355146","0.0-25.0","60671","DH-010","15:21:27","","","","","","","","","","","","Instr_ExpStart","","1814","[""<p style=\""font-size: 36px; width: 1200px; line-height: 40px;\"">The experiment will now start! <br><br><br><br> Please press the <strong>SPACE BAR</strong> to continue</p>""]"," ","","","","","","","",""
"","preload","26","480028","0.0-26.0","60671","DH-010","15:23:32","","","","","","","","","","","","Preload","true","","","","false","[]","[]","[]","","","",""
"","browser-check","27","481016","0.0-27.0","60671","DH-010","15:23:33","1536","864","true","chrome","129.0.0","false","Windows 10","true","61.34","true","false","Browser_Check","","","","","","","","","","","",""
"","video-keyboard-response","28","520624","0.0-28.0","60671","DH-010","15:24:13","","","","","","","","","","","","video 0","","null","[""components/stim/StimVid_Undoing1.mp4""]","null","","","","","","","",""
"","image-slider-response-modified","29","532732","0.0-29.0","60671","DH-010","15:24:25","","","","","","","","","","","","assessment 0","","12098","components/portraits/StimImgSylviaSteinetz.PNG","0","","","","","0","Sylvia Steinetz","A",""
"","image-slider-response-modified","30","534193","0.0-30.0","60671","DH-010","15:24:26","","","","","","","","","","","","assessment 1","","1458","components/portraits/StimImgJonathanFraser.PNG","0","","","","","0","Jonathan Fraser","A",""
"","image-slider-response-modified","31","535008","0.0-31.0","60671","DH-010","15:24:27","","","","","","","","","","","","assessment 2","","810","components/portraits/StimImgFranklinReinhardt.PNG","0","","","","","0","Franklin Reinhardt","A",""
"","image-slider-response-modified","32","539072","0.0-32.0","60671","DH-010","15:24:31","","","","","","","","","","","","assessment 3","","4062","components/portraits/StimImgGraceFraser.PNG","0","","","","","0","Grace Fraser","A",""
"","image-slider-response-modified","33","541500","0.0-33.0","60671","DH-010","15:24:34","","","","","","","","","","","","assessment 4","","2426","components/portraits/StimImgElenaAlves.PNG","0","","","","","0","Elena Alves","A",""
"","image-slider-response-modified","34","542221","0.0-34.0","60671","DH-010","15:24:34","","","","","","","","","","","","assessment 5","","718","components/portraits/StimImgHenryFraser.PNG","0","","","","","0","Henry Fraser","A",""
"","image-slider-response-modified","35","542893","0.0-35.0","60671","DH-010","15:24:35","","","","","","","","","","","","assessment 6","","669","components/portraits/StimImgMiguelAlves.PNG","0","","","","","0","Miguel Alves","A",""
"","image-slider-response-modified","36","543469","0.0-36.0","60671","DH-010","15:24:36","","","","","","","","","","","","assessment 7","","573","components/portraits/StimImgFernandoAlves.PNG","0","","","","","0","Fernando Alves","A",""
"","html-keyboard-response","37","544471","0.0-37.0","60671","DH-010","15:24:37","","","","","","","","","","","","","","null","[""<p style=\""font-size: 36px; width: 1200px; line-height: 40px;\"">Returning to the video...""]","null","","","","","","","",""
"","browser-check","38","545484","0.0-38.0","60671","DH-010","15:24:38","1536","864","true","chrome","129.0.0","false","Windows 10","true","60","true","true","Browser_Check","","","","","","","","","","","",""
"","video-keyboard-response","39","639069","0.0-39.0","60671","DH-010","15:26:11","","","","","","","","","","","","video 1","","null","[""components/stim/StimVid_Undoing1.mp4""]","null","","","","","","","",""
"","image-slider-response-modified","40","644735","0.0-40.0","60671","DH-010","15:26:17","","","","","","","","","","","","assessment 0","","5655","components/portraits/StimImgSylviaSteinetz.PNG","0","","","","","0","Sylvia Steinetz","A",""
"","image-slider-response-modified","41","645517","0.0-41.0","60671","DH-010","15:26:18","","","","","","","","","","","","assessment 1","","779","components/portraits/StimImgJonathanFraser.PNG","0","","","","","0","Jonathan Fraser","A",""
"","image-slider-response-modified","42","646050","0.0-42.0","60671","DH-010","15:26:18","","","","","","","","","","","","assessment 2","","530","components/portraits/StimImgFranklinReinhardt.PNG","0","","","","","0","Franklin Reinhardt","A",""
"","image-slider-response-modified","43","646603","0.0-43.0","60671","DH-010","15:26:19","","","","","","","","","","","","assessment 3","","548","components/portraits/StimImgGraceFraser.PNG","0","","","","","0","Grace Fraser","A",""
"","image-slider-response-modified","44","647074","0.0-44.0","60671","DH-010","15:26:19","","","","","","","","","","","","assessment 4","","462","components/portraits/StimImgElenaAlves.PNG","0","","","","","0","Elena Alves","A",""
"","image-slider-response-modified","45","647650","0.0-45.0","60671","DH-010","15:26:20","","","","","","","","","","","","assessment 5","","570","components/portraits/StimImgHenryFraser.PNG","0","","","","","0","Henry Fraser","A",""
"","image-slider-response-modified","46","648400","0.0-46.0","60671","DH-010","15:26:20","","","","","","","","","","","","assessment 6","","741","components/portraits/StimImgMiguelAlves.PNG","0","","","","","0","Miguel Alves","A",""
"","image-slider-response-modified","47","649090","0.0-47.0","60671","DH-010","15:26:21","","","","","","","","","","","","assessment 7","","687","components/portraits/StimImgFernandoAlves.PNG","0","","","","","0","Fernando Alves","A",""
"","html-keyboard-response","48","650104","0.0-48.0","60671","DH-010","15:26:22","","","","","","","","","","","","","","null","[""<p style=\""font-size: 36px; width: 1200px; line-height: 40px;\"">Returning to the video...""]","null","","","","","","","",""
"","browser-check","49","651101","0.0-49.0","60671","DH-010","15:26:23","1536","864","true","chrome","129.0.0","false","Windows 10","true","60.33","true","true","Browser_Check","","","","","","","","","","","",""
"","video-keyboard-response","50","772446","0.0-50.0","60671","DH-010","15:28:24","","","","","","","","","","","","video 2","","null","[""components/stim/StimVid_Undoing1.mp4""]","null","","","","","","","",""
"","image-slider-response-modified","51","776831","0.0-51.0","60671","DH-010","15:28:29","","","","","","","","","","","","assessment 0","","4379","components/portraits/StimImgSylviaSteinetz.PNG","0","","","","","0","Sylvia Steinetz","A",""
"","image-slider-response-modified","52","777506","0.0-52.0","60671","DH-010","15:28:30","","","","","","","","","","","","assessment 1","","672","components/portraits/StimImgJonathanFraser.PNG","0","","","","","0","Jonathan Fraser","A",""
"","image-slider-response-modified","53","778448","0.0-53.0","60671","DH-010","15:28:30","","","","","","","","","","","","assessment 2","","938","components/portraits/StimImgFranklinReinhardt.PNG","0","","","","","0","Franklin Reinhardt","A",""
"","image-slider-response-modified","54","784176","0.0-54.0","60671","DH-010","15:28:36","","","","","","","","","","","","assessment 3","","5725","components/portraits/StimImgGraceFraser.PNG","-6","","","","","0","Grace Fraser","A",""
"","image-slider-response-modified","55","784674","0.0-55.0","60671","DH-010","15:28:37","","","","","","","","","","","","assessment 4","","495","components/portraits/StimImgElenaAlves.PNG","0","","","","","0","Elena Alves","A",""
"","image-slider-response-modified","56","784854","0.0-56.0","60671","DH-010","15:28:37","","","","","","","","","","","","assessment 5","","178","components/portraits/StimImgHenryFraser.PNG","0","","","","","0","Henry Fraser","A",""
"","image-slider-response-modified","57","785061","0.0-57.0","60671","DH-010","15:28:37","","","","","","","","","","","","assessment 6","","203","components/portraits/StimImgMiguelAlves.PNG","0","","","","","0","Miguel Alves","A",""
"","image-slider-response-modified","58","785292","0.0-58.0","60671","DH-010","15:28:37","","","","","","","","","","","","assessment 7","","228","components/portraits/StimImgFernandoAlves.PNG","0","","","","","0","Fernando Alves","A",""
"","html-keyboard-response","59","786306","0.0-59.0","60671","DH-010","15:28:38","","","","","","","","","","","","","","null","[""<p style=\""font-size: 36px; width: 1200px; line-height: 40px;\"">Returning to the video...""]","null","","","","","","","",""
"","browser-check","60","787302","0.0-60.0","60671","DH-010","15:28:39","1536","864","true","chrome","129.0.0","false","Windows 10","true","60.38","true","true","Browser_Check","","","","","","","","","","","",""
"","video-keyboard-response","61","858794","0.0-61.0","60671","DH-010","15:29:51","","","","","","","","","","","","video 3","","null","[""components/stim/StimVid_Undoing1.mp4""]","null","","","","","","","",""
"","image-slider-response-modified","62","861533","0.0-62.0","60671","DH-010","15:29:54","","","","","","","","","","","","assessment 0","","2731","components/portraits/StimImgSylviaSteinetz.PNG","0","","","","","0","Sylvia Steinetz","A",""
"","image-slider-response-modified","63","862278","0.0-63.0","60671","DH-010","15:29:54","","","","","","","","","","","","assessment 1","","741","components/portraits/StimImgJonathanFraser.PNG","0","","","","","0","Jonathan Fraser","A",""
"","image-slider-response-modified","64","862633","0.0-64.0","60671","DH-010","15:29:55","","","","","","","","","","","","assessment 2","","351","components/portraits/StimImgFranklinReinhardt.PNG","0","","","","","0","Franklin Reinhardt","A",""
"","image-slider-response-modified","65","862894","0.0-65.0","60671","DH-010","15:29:55","","","","","","","","","","","","assessment 3","","253","components/portraits/StimImgGraceFraser.PNG","-6","","","","","-6","Grace Fraser","A",""
"","image-slider-response-modified","66","863219","0.0-66.0","60671","DH-010","15:29:55","","","","","","","","","","","","assessment 4","","322","components/portraits/StimImgElenaAlves.PNG","0","","","","","0","Elena Alves","A",""
"","image-slider-response-modified","67","863434","0.0-67.0","60671","DH-010","15:29:55","","","","","","","","","","","","assessment 5","","208","components/portraits/StimImgHenryFraser.PNG","0","","","","","0","Henry Fraser","A",""
"","image-slider-response-modified","68","864213","0.0-68.0","60671","DH-010","15:29:56","","","","","","","","","","","","assessment 6","","773","components/portraits/StimImgMiguelAlves.PNG","0","","","","","0","Miguel Alves","A",""
"","image-slider-response-modified","69","864904","0.0-69.0","60671","DH-010","15:29:57","","","","","","","","","","","","assessment 7","","686","components/portraits/StimImgFernandoAlves.PNG","0","","","","","0","Fernando Alves","A",""
"","html-keyboard-response","70","865918","0.0-70.0","60671","DH-010","15:29:58","","","","","","","","","","","","","","null","[""<p style=\""font-size: 36px; width: 1200px; line-height: 40px;\"">Returning to the video...""]","null","","","","","","","",""
"","browser-check","71","866915","0.0-71.0","60671","DH-010","15:29:59","1536","864","true","chrome","129.0.0","false","Windows 10","true","60.39","true","true","Browser_Check","","","","","","","","","","","",""
"","video-keyboard-response","72","934371","0.0-72.0","60671","DH-010","15:31:6","","","","","","","","","","","","video 4","","null","[""components/stim/StimVid_Undoing1.mp4""]","null","","","","","","","",""
"","image-slider-response-modified","73","937707","0.0-73.0","60671","DH-010","15:31:10","","","","","","","","","","","","assessment 0","","3329","components/portraits/StimImgSylviaSteinetz.PNG","0","","","","","0","Sylvia Steinetz","A",""
"","image-slider-response-modified","74","948892","0.0-74.0","60671","DH-010","15:31:21","","","","","","","","","","","","assessment 1","","11182","components/portraits/StimImgJonathanFraser.PNG","-15","","","","","0","Jonathan Fraser","A",""
"","image-slider-response-modified","75","950304","0.0-75.0","60671","DH-010","15:31:22","","","","","","","","","","","","assessment 2","","1409","components/portraits/StimImgFranklinReinhardt.PNG","0","","","","","0","Franklin Reinhardt","A",""
"","image-slider-response-modified","76","951056","0.0-76.0","60671","DH-010","15:31:23","","","","","","","","","","","","assessment 3","","749","components/portraits/StimImgGraceFraser.PNG","-6","","","","","-6","Grace Fraser","A",""
"","image-slider-response-modified","77","952516","0.0-77.0","60671","DH-010","15:31:25","","","","","","","","","","","","assessment 4","","1456","components/portraits/StimImgElenaAlves.PNG","0","","","","","0","Elena Alves","A",""
"","image-slider-response-modified","78","953221","0.0-78.0","60671","DH-010","15:31:25","","","","","","","","","","","","assessment 5","","703","components/portraits/StimImgHenryFraser.PNG","0","","","","","0","Henry Fraser","A",""
"","image-slider-response-modified","79","953958","0.0-79.0","60671","DH-010","15:31:26","","","","","","","","","","","","assessment 6","","733","components/portraits/StimImgMiguelAlves.PNG","0","","","","","0","Miguel Alves","A",""
"","image-slider-response-modified","80","954709","0.0-80.0","60671","DH-010","15:31:27","","","","","","","","","","","","assessment 7","","748","components/portraits/StimImgFernandoAlves.PNG","0","","","","","0","Fernando Alves","A",""
"","html-keyboard-response","81","955720","0.0-81.0","60671","DH-010","15:31:28","","","","","","","","","","","","","","null","[""<p style=\""font-size: 36px; width: 1200px; line-height: 40px;\"">Returning to the video...""]","null","","","","","","","",""
"","browser-check","82","956722","0.0-82.0","60671","DH-010","15:31:29","1536","864","true","chrome","129.0.0","false","Windows 10","true","60","true","true","Browser_Check","","","","","","","","","","","",""
"","video-keyboard-response","83","1044687","0.0-83.0","60671","DH-010","15:32:57","","","","","","","","","","","","video 5","","null","[""components/stim/StimVid_Undoing1.mp4""]","null","","","","","","","",""
"","image-slider-response-modified","84","1049251","0.0-84.0","60671","DH-010","15:33:1","","","","","","","","","","","","assessment 0","","4557","components/portraits/StimImgSylviaSteinetz.PNG","0","","","","","0","Sylvia Steinetz","A",""
"","image-slider-response-modified","85","1050337","0.0-85.0","60671","DH-010","15:33:2","","","","","","","","","","","","assessment 1","","1082","components/portraits/StimImgJonathanFraser.PNG","-15","","","","","-15","Jonathan Fraser","A",""
"","image-slider-response-modified","86","1051090","0.0-86.0","60671","DH-010","15:33:3","","","","","","","","","","","","assessment 2","","750","components/portraits/StimImgFranklinReinhardt.PNG","0","","","","","0","Franklin Reinhardt","A",""
"","image-slider-response-modified","87","1051313","0.0-87.0","60671","DH-010","15:33:3","","","","","","","","","","","","assessment 3","","220","components/portraits/StimImgGraceFraser.PNG","-6","","","","","-6","Grace Fraser","A",""
"","image-slider-response-modified","88","1051778","0.0-88.0","60671","DH-010","15:33:4","","","","","","","","","","","","assessment 4","","459","components/portraits/StimImgElenaAlves.PNG","0","","","","","0","Elena Alves","A",""
"","image-slider-response-modified","89","1052421","0.0-89.0","60671","DH-010","15:33:4","","","","","","","","","","","","assessment 5","","640","components/portraits/StimImgHenryFraser.PNG","0","","","","","0","Henry Fraser","A",""
"","image-slider-response-modified","90","1053110","0.0-90.0","60671","DH-010","15:33:5","","","","","","","","","","","","assessment 6","","686","components/portraits/StimImgMiguelAlves.PNG","0","","","","","0","Miguel Alves","A",""
"","image-slider-response-modified","91","1053786","0.0-91.0","60671","DH-010","15:33:6","","","","","","","","","","","","assessment 7","","672","components/portraits/StimImgFernandoAlves.PNG","0","","","","","0","Fernando Alves","A",""
"","html-keyboard-response","92","1054801","0.0-92.0","60671","DH-010","15:33:7","","","","","","","","","","","","","","null","[""<p style=\""font-size: 36px; width: 1200px; line-height: 40px;\"">Returning to the video...""]","null","","","","","","","",""
"","browser-check","93","1055792","0.0-93.0","60671","DH-010","15:33:8","1536","864","true","chrome","129.0.0","false","Windows 10","true","60.69","true","true","Browser_Check","","","","","","","","","","","",""
"","video-keyboard-response","94","1129120","0.0-94.0","60671","DH-010","15:34:21","","","","","","","","","","","","video 6","","null","[""components/stim/StimVid_Undoing1.mp4""]","null","","","","","","","",""
"","image-slider-response-modified","95","1132554","0.0-95.0","60671","DH-010","15:34:25","","","","","","","","","","","","assessment 0","","3427","components/portraits/StimImgSylviaSteinetz.PNG","0","","","","","0","Sylvia Steinetz","A",""
"","image-slider-response-modified","96","1134285","0.0-96.0","60671","DH-010","15:34:26","","","","","","","","","","","","assessment 1","","1727","components/portraits/StimImgJonathanFraser.PNG","-15","","","","","-15","Jonathan Fraser","A",""
"","image-slider-response-modified","97","1135411","0.0-97.0","60671","DH-010","15:34:27","","","","","","","","","","","","assessment 2","","1122","components/portraits/StimImgFranklinReinhardt.PNG","0","","","","","0","Franklin Reinhardt","A",""
"","image-slider-response-modified","98","1151677","0.0-98.0","60671","DH-010","15:34:44","","","","","","","","","","","","assessment 3","","16264","components/portraits/StimImgGraceFraser.PNG","-2","","","","","-6","Grace Fraser","A",""
"","image-slider-response-modified","99","1152760","0.0-99.0","60671","DH-010","15:34:45","","","","","","","","","","","","assessment 4","","1079","components/portraits/StimImgElenaAlves.PNG","0","","","","","0","Elena Alves","A",""
"","image-slider-response-modified","100","1153636","0.0-100.0","60671","DH-010","15:34:46","","","","","","","","","","","","assessment 5","","873","components/portraits/StimImgHenryFraser.PNG","0","","","","","0","Henry Fraser","A",""
"","image-slider-response-modified","101","1154571","0.0-101.0","60671","DH-010","15:34:47","","","","","","","","","","","","assessment 6","","932","components/portraits/StimImgMiguelAlves.PNG","0","","","","","0","Miguel Alves","A",""
"","image-slider-response-modified","102","1155684","0.0-102.0","60671","DH-010","15:34:48","","","","","","","","","","","","assessment 7","","1108","components/portraits/StimImgFernandoAlves.PNG","0","","","","","0","Fernando Alves","A",""
"","html-keyboard-response","103","1156687","0.0-103.0","60671","DH-010","15:34:49","","","","","","","","","","","","","","null","[""<p style=\""font-size: 36px; width: 1200px; line-height: 40px;\"">Returning to the video...""]","null","","","","","","","",""
"","browser-check","104","1157677","0.0-104.0","60671","DH-010","15:34:50","1536","864","true","chrome","129.0.0","false","Windows 10","true","60.77","true","true","Browser_Check","","","","","","","","","","","",""
"","video-keyboard-response","105","1231510","0.0-105.0","60671","DH-010","15:36:4","","","","","","","","","","","","video 7","","null","[""components/stim/StimVid_Undoing1.mp4""]","null","","","","","","","",""
"","image-slider-response-modified","106","1234652","0.0-106.0","60671","DH-010","15:36:7","","","","","","","","","","","","assessment 0","","3136","components/portraits/StimImgSylviaSteinetz.PNG","0","","","","","0","Sylvia Steinetz","A",""
"","image-slider-response-modified","107","1235196","0.0-107.0","60671","DH-010","15:36:7","","","","","","","","","","","","assessment 1","","540","components/portraits/StimImgJonathanFraser.PNG","-15","","","","","-15","Jonathan Fraser","A",""
"","image-slider-response-modified","108","1235442","0.0-108.0","60671","DH-010","15:36:7","","","","","","","","","","","","assessment 2","","240","components/portraits/StimImgFranklinReinhardt.PNG","0","","","","","0","Franklin Reinhardt","A",""
"","image-slider-response-modified","109","1235660","0.0-109.0","60671","DH-010","15:36:8","","","","","","","","","","","","assessment 3","","214","components/portraits/StimImgGraceFraser.PNG","-2","","","","","-2","Grace Fraser","A",""
"","image-slider-response-modified","110","1235872","0.0-110.0","60671","DH-010","15:36:8","","","","","","","","","","","","assessment 4","","210","components/portraits/StimImgElenaAlves.PNG","0","","","","","0","Elena Alves","A",""
"","image-slider-response-modified","111","1236073","0.0-111.0","60671","DH-010","15:36:8","","","","","","","","","","","","assessment 5","","193","components/portraits/StimImgHenryFraser.PNG","0","","","","","0","Henry Fraser","A",""
"","image-slider-response-modified","112","1236303","0.0-112.0","60671","DH-010","15:36:8","","","","","","","","","","","","assessment 6","","224","components/portraits/StimImgMiguelAlves.PNG","0","","","","","0","Miguel Alves","A",""
"","image-slider-response-modified","113","1236552","0.0-113.0","60671","DH-010","15:36:9","","","","","","","","","","","","assessment 7","","245","components/portraits/StimImgFernandoAlves.PNG","0","","","","","0","Fernando Alves","A",""
"","html-keyboard-response","114","1237559","0.0-114.0","60671","DH-010","15:36:10","","","","","","","","","","","","","","null","[""<p style=\""font-size: 36px; width: 1200px; line-height: 40px;\"">Returning to the video...""]","null","","","","","","","",""
"","browser-check","115","1238555","0.0-115.0","60671","DH-010","15:36:11","1536","864","true","chrome","129.0.0","false","Windows 10","true","60.3","true","true","Browser_Check","","","","","","","","","","","",""
"","video-keyboard-response","116","1349905","0.0-116.0","60671","DH-010","15:38:2","","","","","","","","","","","","video 8","","null","[""components/stim/StimVid_Undoing1.mp4""]","null","","","","","","","",""
"","image-slider-response-modified","117","1358637","0.0-117.0","60671","DH-010","15:38:11","","","","","","","","","","","","assessment 0","","8725","components/portraits/StimImgSylviaSteinetz.PNG","0","","","","","0","Sylvia Steinetz","A",""
"","image-slider-response-modified","118","1359859","0.0-118.0","60671","DH-010","15:38:12","","","","","","","","","","","","assessment 1","","1218","components/portraits/StimImgJonathanFraser.PNG","-15","","","","","-15","Jonathan Fraser","A",""
"","image-slider-response-modified","119","1367841","0.0-119.0","60671","DH-010","15:38:20","","","","","","","","","","","","assessment 2","","7979","components/portraits/StimImgFranklinReinhardt.PNG","12","","","","","0","Franklin Reinhardt","A",""
"","image-slider-response-modified","120","1368024","0.0-120.0","60671","DH-010","15:38:20","","","","","","","","","","","","assessment 3","","179","components/portraits/StimImgGraceFraser.PNG","-2","","","","","-2","Grace Fraser","A",""
"","image-slider-response-modified","121","1368201","0.0-121.0","60671","DH-010","15:38:20","","","","","","","","","","","","assessment 4","","173","components/portraits/StimImgElenaAlves.PNG","0","","","","","0","Elena Alves","A",""
"","image-slider-response-modified","122","1368424","0.0-122.0","60671","DH-010","15:38:20","","","","","","","","","","","","assessment 5","","212","components/portraits/StimImgHenryFraser.PNG","0","","","","","0","Henry Fraser","A",""
"","image-slider-response-modified","123","1369364","0.0-123.0","60671","DH-010","15:38:21","","","","","","","","","","","","assessment 6","","936","components/portraits/StimImgMiguelAlves.PNG","0","","","","","0","Miguel Alves","A",""
"","image-slider-response-modified","124","1370070","0.0-124.0","60671","DH-010","15:38:22","","","","","","","","","","","","assessment 7","","703","components/portraits/StimImgFernandoAlves.PNG","0","","","","","0","Fernando Alves","A",""
"","html-keyboard-response","125","1371073","0.0-125.0","60671","DH-010","15:38:23","","","","","","","","","","","","","","null","[""<p style=\""font-size: 36px; width: 1200px; line-height: 40px;\"">Returning to the video...""]","null","","","","","","","",""
"","browser-check","126","1372076","0.0-126.0","60671","DH-010","15:38:24","1536","864","true","chrome","129.0.0","false","Windows 10","true","60.01","true","true","Browser_Check","","","","","","","","","","","",""
"","video-keyboard-response","127","1443544","0.0-127.0","60671","DH-010","15:39:36","","","","","","","","","","","","video 9","","null","[""components/stim/StimVid_Undoing1.mp4""]","null","","","","","","","",""
"","image-slider-response-modified","128","1447082","0.0-128.0","60671","DH-010","15:39:39","","","","","","","","","","","","assessment 0","","3530","components/portraits/StimImgSylviaSteinetz.PNG","0","","","","","0","Sylvia Steinetz","A",""
"","image-slider-response-modified","129","1448906","0.0-129.0","60671","DH-010","15:39:41","","","","","","","","","","","","assessment 1","","1821","components/portraits/StimImgJonathanFraser.PNG","-15","","","","","-15","Jonathan Fraser","A",""
"","image-slider-response-modified","130","1449611","0.0-130.0","60671","DH-010","15:39:42","","","","","","","","","","","","assessment 2","","702","components/portraits/StimImgFranklinReinhardt.PNG","12","","","","","12","Franklin Reinhardt","A",""
"","image-slider-response-modified","131","1450302","0.0-131.0","60671","DH-010","15:39:42","","","","","","","","","","","","assessment 3","","688","components/portraits/StimImgGraceFraser.PNG","-2","","","","","-2","Grace Fraser","A",""
"","image-slider-response-modified","132","1451020","0.0-132.0","60671","DH-010","15:39:43","","","","","","","","","","","","assessment 4","","714","components/portraits/StimImgElenaAlves.PNG","0","","","","","0","Elena Alves","A",""
"","image-slider-response-modified","133","1451823","0.0-133.0","60671","DH-010","15:39:44","","","","","","","","","","","","assessment 5","","797","components/portraits/StimImgHenryFraser.PNG","0","","","","","0","Henry Fraser","A",""
"","image-slider-response-modified","134","1452525","0.0-134.0","60671","DH-010","15:39:45","","","","","","","","","","","","assessment 6","","699","components/portraits/StimImgMiguelAlves.PNG","0","","","","","0","Miguel Alves","A",""
"","image-slider-response-modified","135","1453288","0.0-135.0","60671","DH-010","15:39:45","","","","","","","","","","","","assessment 7","","759","components/portraits/StimImgFernandoAlves.PNG","0","","","","","0","Fernando Alves","A",""
"","html-keyboard-response","136","1454290","0.0-136.0","60671","DH-010","15:39:46","","","","","","","","","","","","","","null","[""<p style=\""font-size: 36px; width: 1200px; line-height: 40px;\"">Returning to the video...""]","null","","","","","","","",""
"","browser-check","137","1455286","0.0-137.0","60671","DH-010","15:39:47","1536","864","true","chrome","129.0.0","false","Windows 10","true","60.37","true","true","Browser_Check","","","","","","","","","","","",""
"","video-keyboard-response","138","1534708","0.0-138.0","60671","DH-010","15:41:7","","","","","","","","","","","","video 10","","null","[""components/stim/StimVid_Undoing1.mp4""]","null","","","","","","","",""
"","image-slider-response-modified","139","1538942","0.0-139.0","60671","DH-010","15:41:11","","","","","","","","","","","","assessment 0","","4225","components/portraits/StimImgSylviaSteinetz.PNG","0","","","","","0","Sylvia Steinetz","A",""
"","image-slider-response-modified","140","1539166","0.0-140.0","60671","DH-010","15:41:11","","","","","","","","","","","","assessment 1","","221","components/portraits/StimImgJonathanFraser.PNG","-15","","","","","-15","Jonathan Fraser","A",""
"","image-slider-response-modified","141","1539388","0.0-141.0","60671","DH-010","15:41:11","","","","","","","","","","","","assessment 2","","219","components/portraits/StimImgFranklinReinhardt.PNG","12","","","","","12","Franklin Reinhardt","A",""
"","image-slider-response-modified","142","1539601","0.0-142.0","60671","DH-010","15:41:12","","","","","","","","","","","","assessment 3","","206","components/portraits/StimImgGraceFraser.PNG","-2","","","","","-2","Grace Fraser","A",""
"","image-slider-response-modified","143","1539799","0.0-143.0","60671","DH-010","15:41:12","","","","","","","","","","","","assessment 4","","197","components/portraits/StimImgElenaAlves.PNG","0","","","","","0","Elena Alves","A",""
"","image-slider-response-modified","144","1540020","0.0-144.0","60671","DH-010","15:41:12","","","","","","","","","","","","assessment 5","","217","components/portraits/StimImgHenryFraser.PNG","0","","","","","0","Henry Fraser","A",""
"","image-slider-response-modified","145","1540533","0.0-145.0","60671","DH-010","15:41:13","","","","","","","","","","","","assessment 6","","507","components/portraits/StimImgMiguelAlves.PNG","0","","","","","0","Miguel Alves","A",""
"","image-slider-response-modified","146","1540941","0.0-146.0","60671","DH-010","15:41:13","","","","","","","","","","","","assessment 7","","404","components/portraits/StimImgFernandoAlves.PNG","0","","","","","0","Fernando Alves","A",""
"","html-keyboard-response","147","1541944","0.0-147.0","60671","DH-010","15:41:14","","","","","","","","","","","","","","null","[""<p style=\""font-size: 36px; width: 1200px; line-height: 40px;\"">Returning to the video...""]","null","","","","","","","",""
"","browser-check","148","1542944","0.0-148.0","60671","DH-010","15:41:15","1536","864","true","chrome","129.0.0","false","Windows 10","true","60.15","true","true","Browser_Check","","","","","","","","","","","",""
"","video-keyboard-response","149","1610388","0.0-149.0","60671","DH-010","15:42:22","","","","","","","","","","","","video 11","","null","[""components/stim/StimVid_Undoing1.mp4""]","null","","","","","","","",""
"","image-slider-response-modified","150","1613590","0.0-150.0","60671","DH-010","15:42:26","","","","","","","","","","","","assessment 0","","3193","components/portraits/StimImgSylviaSteinetz.PNG","0","","","","","0","Sylvia Steinetz","A",""
"","image-slider-response-modified","151","1613785","0.0-151.0","60671","DH-010","15:42:26","","","","","","","","","","","","assessment 1","","191","components/portraits/StimImgJonathanFraser.PNG","-15","","","","","-15","Jonathan Fraser","A",""
"","image-slider-response-modified","152","1614003","0.0-152.0","60671","DH-010","15:42:26","","","","","","","","","","","","assessment 2","","215","components/portraits/StimImgFranklinReinhardt.PNG","12","","","","","12","Franklin Reinhardt","A",""
"","image-slider-response-modified","153","1614201","0.0-153.0","60671","DH-010","15:42:26","","","","","","","","","","","","assessment 3","","191","components/portraits/StimImgGraceFraser.PNG","-2","","","","","-2","Grace Fraser","A",""
"","image-slider-response-modified","154","1614498","0.0-154.0","60671","DH-010","15:42:27","","","","","","","","","","","","assessment 4","","294","components/portraits/StimImgElenaAlves.PNG","0","","","","","0","Elena Alves","A",""
"","image-slider-response-modified","155","1614721","0.0-155.0","60671","DH-010","15:42:27","","","","","","","","","","","","assessment 5","","217","components/portraits/StimImgHenryFraser.PNG","0","","","","","0","Henry Fraser","A",""
"","image-slider-response-modified","156","1615253","0.0-156.0","60671","DH-010","15:42:27","","","","","","","","","","","","assessment 6","","524","components/portraits/StimImgMiguelAlves.PNG","0","","","","","0","Miguel Alves","A",""
"","image-slider-response-modified","157","1616002","0.0-157.0","60671","DH-010","15:42:28","","","","","","","","","","","","assessment 7","","746","components/portraits/StimImgFernandoAlves.PNG","0","","","","","0","Fernando Alves","A",""
"","html-keyboard-response","158","1617019","0.0-158.0","60671","DH-010","15:42:29","","","","","","","","","","","","","","null","[""<p style=\""font-size: 36px; width: 1200px; line-height: 40px;\"">Returning to the video...""]","null","","","","","","","",""
"","browser-check","159","1618009","0.0-159.0","60671","DH-010","15:42:30","1536","864","true","chrome","129.0.0","false","Windows 10","true","60.78","true","true","Browser_Check","","","","","","","","","","","",""
"","video-keyboard-response","160","1723538","0.0-160.0","60671","DH-010","15:44:16","","","","","","","","","","","","video 12","","null","[""components/stim/StimVid_Undoing1.mp4""]","null","","","","","","","",""
"","image-slider-response-modified","161","1725828","0.0-161.0","60671","DH-010","15:44:18","","","","","","","","","","","","assessment 0","","2283","components/portraits/StimImgSylviaSteinetz.PNG","0","","","","","0","Sylvia Steinetz","A",""
"","image-slider-response-modified","162","1726421","0.0-162.0","60671","DH-010","15:44:18","","","","","","","","","","","","assessment 1","","590","components/portraits/StimImgJonathanFraser.PNG","-15","","","","","-15","Jonathan Fraser","A",""
"","image-slider-response-modified","163","1726618","0.0-163.0","60671","DH-010","15:44:19","","","","","","","","","","","","assessment 2","","189","components/portraits/StimImgFranklinReinhardt.PNG","12","","","","","12","Franklin Reinhardt","A",""
"","image-slider-response-modified","164","1726817","0.0-164.0","60671","DH-010","15:44:19","","","","","","","","","","","","assessment 3","","196","components/portraits/StimImgGraceFraser.PNG","-2","","","","","-2","Grace Fraser","A",""
"","image-slider-response-modified","165","1726986","0.0-165.0","60671","DH-010","15:44:19","","","","","","","","","","","","assessment 4","","166","components/portraits/StimImgElenaAlves.PNG","0","","","","","0","Elena Alves","A",""
"","image-slider-response-modified","166","1727211","0.0-166.0","60671","DH-010","15:44:19","","","","","","","","","","","","assessment 5","","222","components/portraits/StimImgHenryFraser.PNG","0","","","","","0","Henry Fraser","A",""
"","image-slider-response-modified","167","1727740","0.0-167.0","60671","DH-010","15:44:20","","","","","","","","","","","","assessment 6","","523","components/portraits/StimImgMiguelAlves.PNG","0","","","","","0","Miguel Alves","A",""
"","image-slider-response-modified","168","1728462","0.0-168.0","60671","DH-010","15:44:21","","","","","","","","","","","","assessment 7","","717","components/portraits/StimImgFernandoAlves.PNG","0","","","","","0","Fernando Alves","A",""
"","html-keyboard-response","169","1729478","0.0-169.0","60671","DH-010","15:44:22","","","","","","","","","","","","","","null","[""<p style=\""font-size: 36px; width: 1200px; line-height: 40px;\"">Returning to the video...""]","null","","","","","","","",""
"","browser-check","170","1730472","0.0-170.0","60671","DH-010","15:44:23","1536","864","true","chrome","129.0.0","false","Windows 10","true","60.48","true","true","Browser_Check","","","","","","","","","","","",""
"","video-keyboard-response","171","1819796","0.0-171.0","60671","DH-010","15:45:52","","","","","","","","","","","","video 13","","null","[""components/stim/StimVid_Undoing1.mp4""]","null","","","","","","","",""
"","image-slider-response-modified","172","1822288","0.0-172.0","60671","DH-010","15:45:54","","","","","","","","","","","","assessment 0","","2485","components/portraits/StimImgSylviaSteinetz.PNG","0","","","","","0","Sylvia Steinetz","A",""
"","image-slider-response-modified","173","1823280","0.0-173.0","60671","DH-010","15:45:55","","","","","","","","","","","","assessment 1","","988","components/portraits/StimImgJonathanFraser.PNG","-15","","","","","-15","Jonathan Fraser","A",""
"","image-slider-response-modified","174","1824343","0.0-174.0","60671","DH-010","15:45:56","","","","","","","","","","","","assessment 2","","1060","components/portraits/StimImgFranklinReinhardt.PNG","12","","","","","12","Franklin Reinhardt","A",""
"","image-slider-response-modified","175","1828793","0.0-175.0","60671","DH-010","15:46:1","","","","","","","","","","","","assessment 3","","4446","components/portraits/StimImgGraceFraser.PNG","-5","","","","","-2","Grace Fraser","A",""
"","image-slider-response-modified","176","1829418","0.0-176.0","60671","DH-010","15:46:1","","","","","","","","","","","","assessment 4","","620","components/portraits/StimImgElenaAlves.PNG","0","","","","","0","Elena Alves","A",""
"","image-slider-response-modified","177","1829944","0.0-177.0","60671","DH-010","15:46:2","","","","","","","","","","","","assessment 5","","516","components/portraits/StimImgHenryFraser.PNG","0","","","","","0","Henry Fraser","A",""
"","image-slider-response-modified","178","1830630","0.0-178.0","60671","DH-010","15:46:3","","","","","","","","","","","","assessment 6","","684","components/portraits/StimImgMiguelAlves.PNG","0","","","","","0","Miguel Alves","A",""
"","image-slider-response-modified","179","1831353","0.0-179.0","60671","DH-010","15:46:3","","","","","","","","","","","","assessment 7","","719","components/portraits/StimImgFernandoAlves.PNG","0","","","","","0","Fernando Alves","A",""
"","html-keyboard-response","180","1832368","0.0-180.0","60671","DH-010","15:46:4","","","","","","","","","","","","","","null","[""<p style=\""font-size: 36px; width: 1200px; line-height: 40px;\"">Returning to the video...""]","null","","","","","","","",""
"","browser-check","181","1833356","0.0-181.0","60671","DH-010","15:46:5","1536","864","true","chrome","129.0.0","false","Windows 10","true","60.82","true","true","Browser_Check","","","","","","","","","","","",""
"","video-keyboard-response","182","1900782","0.0-182.0","60671","DH-010","15:47:13","","","","","","","","","","","","video 14","","null","[""components/stim/StimVid_Undoing1.mp4""]","null","","","","","","","",""
"","image-slider-response-modified","183","1906345","0.0-183.0","60671","DH-010","15:47:18","","","","","","","","","","","","assessment 0","","5556","components/portraits/StimImgSylviaSteinetz.PNG","0","","","","","0","Sylvia Steinetz","A",""
"","image-slider-response-modified","184","1909539","0.0-184.0","60671","DH-010","15:47:22","","","","","","","","","","","","assessment 1","","3191","components/portraits/StimImgJonathanFraser.PNG","-19","","","","","-15","Jonathan Fraser","A",""
"","image-slider-response-modified","185","1911361","0.0-185.0","60671","DH-010","15:47:23","","","","","","","","","","","","assessment 2","","1818","components/portraits/StimImgFranklinReinhardt.PNG","12","","","","","12","Franklin Reinhardt","A",""
"","image-slider-response-modified","186","1917215","0.0-186.0","60671","DH-010","15:47:29","","","","","","","","","","","","assessment 3","","5851","components/portraits/StimImgGraceFraser.PNG","-12","","","","","-5","Grace Fraser","A",""
"","image-slider-response-modified","187","1917984","0.0-187.0","60671","DH-010","15:47:30","","","","","","","","","","","","assessment 4","","765","components/portraits/StimImgElenaAlves.PNG","0","","","","","0","Elena Alves","A",""
"","image-slider-response-modified","188","1918373","0.0-188.0","60671","DH-010","15:47:30","","","","","","","","","","","","assessment 5","","385","components/portraits/StimImgHenryFraser.PNG","0","","","","","0","Henry Fraser","A",""
"","image-slider-response-modified","189","1918941","0.0-189.0","60671","DH-010","15:47:31","","","","","","","","","","","","assessment 6","","565","components/portraits/StimImgMiguelAlves.PNG","0","","","","","0","Miguel Alves","A",""
"","image-slider-response-modified","190","1919591","0.0-190.0","60671","DH-010","15:47:32","","","","","","","","","","","","assessment 7","","646","components/portraits/StimImgFernandoAlves.PNG","0","","","","","0","Fernando Alves","A",""
"","html-keyboard-response","191","1920595","0.0-191.0","60671","DH-010","15:47:33","","","","","","","","","","","","","","null","[""<p style=\""font-size: 36px; width: 1200px; line-height: 40px;\"">Returning to the video...""]","null","","","","","","","",""
"","browser-check","192","1921582","0.0-192.0","60671","DH-010","15:47:34","1536","864","true","chrome","129.0.0","false","Windows 10","true","60.9","true","true","Browser_Check","","","","","","","","","","","",""
"","video-keyboard-response","193","1995123","0.0-193.0","60671","DH-010","15:48:47","","","","","","","","","","","","video 15","","null","[""components/stim/StimVid_Undoing1.mp4""]","null","","","","","","","",""
"","image-slider-response-modified","194","1997195","0.0-194.0","60671","DH-010","15:48:49","","","","","","","","","","","","assessment 0","","2067","components/portraits/StimImgSylviaSteinetz.PNG","0","","","","","0","Sylvia Steinetz","A",""
"","image-slider-response-modified","195","1997381","0.0-195.0","60671","DH-010","15:48:49","","","","","","","","","","","","assessment 1","","183","components/portraits/StimImgJonathanFraser.PNG","-19","","","","","-19","Jonathan Fraser","A",""
"","image-slider-response-modified","196","1997565","0.0-196.0","60671","DH-010","15:48:50","","","","","","","","","","","","assessment 2","","180","components/portraits/StimImgFranklinReinhardt.PNG","12","","","","","12","Franklin Reinhardt","A",""
"","image-slider-response-modified","197","1997766","0.0-197.0","60671","DH-010","15:48:50","","","","","","","","","","","","assessment 3","","198","components/portraits/StimImgGraceFraser.PNG","-12","","","","","-12","Grace Fraser","A",""
"","image-slider-response-modified","198","1997937","0.0-198.0","60671","DH-010","15:48:50","","","","","","","","","","","","assessment 4","","165","components/portraits/StimImgElenaAlves.PNG","0","","","","","0","Elena Alves","A",""
"","image-slider-response-modified","199","1998114","0.0-199.0","60671","DH-010","15:48:50","","","","","","","","","","","","assessment 5","","174","components/portraits/StimImgHenryFraser.PNG","0","","","","","0","Henry Fraser","A",""
"","image-slider-response-modified","200","1998337","0.0-200.0","60671","DH-010","15:48:50","","","","","","","","","","","","assessment 6","","220","components/portraits/StimImgMiguelAlves.PNG","0","","","","","0","Miguel Alves","A",""
"","image-slider-response-modified","201","1998651","0.0-201.0","60671","DH-010","15:48:51","","","","","","","","","","","","assessment 7","","310","components/portraits/StimImgFernandoAlves.PNG","0","","","","","0","Fernando Alves","A",""
"","html-keyboard-response","202","1999657","0.0-202.0","60671","DH-010","15:48:52","","","","","","","","","","","","","","null","[""<p style=\""font-size: 36px; width: 1200px; line-height: 40px;\"">Returning to the video...""]","null","","","","","","","",""
"","browser-check","203","2000644","0.0-203.0","60671","DH-010","15:48:53","1536","864","true","chrome","129.0.0","false","Windows 10","true","60.88","true","true","Browser_Check","","","","","","","","","","","",""
"","video-keyboard-response","204","2073942","0.0-204.0","60671","DH-010","15:50:6","","","","","","","","","","","","video 16","","null","[""components/stim/StimVid_Undoing1.mp4""]","null","","","","","","","",""
"","image-slider-response-modified","205","2075953","0.0-205.0","60671","DH-010","15:50:8","","","","","","","","","","","","assessment 0","","2005","components/portraits/StimImgSylviaSteinetz.PNG","0","","","","","0","Sylvia Steinetz","A",""
"","image-slider-response-modified","206","2076225","0.0-206.0","60671","DH-010","15:50:8","","","","","","","","","","","","assessment 1","","269","components/portraits/StimImgJonathanFraser.PNG","-19","","","","","-19","Jonathan Fraser","A",""
"","image-slider-response-modified","207","2076400","0.0-207.0","60671","DH-010","15:50:8","","","","","","","","","","","","assessment 2","","172","components/portraits/StimImgFranklinReinhardt.PNG","12","","","","","12","Franklin Reinhardt","A",""
"","image-slider-response-modified","208","2076587","0.0-208.0","60671","DH-010","15:50:9","","","","","","","","","","","","assessment 3","","183","components/portraits/StimImgGraceFraser.PNG","-12","","","","","-12","Grace Fraser","A",""
"","image-slider-response-modified","209","2076761","0.0-209.0","60671","DH-010","15:50:9","","","","","","","","","","","","assessment 4","","167","components/portraits/StimImgElenaAlves.PNG","0","","","","","0","Elena Alves","A",""
"","image-slider-response-modified","210","2076949","0.0-210.0","60671","DH-010","15:50:9","","","","","","","","","","","","assessment 5","","184","components/portraits/StimImgHenryFraser.PNG","0","","","","","0","Henry Fraser","A",""
"","image-slider-response-modified","211","2077165","0.0-211.0","60671","DH-010","15:50:9","","","","","","","","","","","","assessment 6","","213","components/portraits/StimImgMiguelAlves.PNG","0","","","","","0","Miguel Alves","A",""
"","image-slider-response-modified","212","2077337","0.0-212.0","60671","DH-010","15:50:9","","","","","","","","","","","","assessment 7","","169","components/portraits/StimImgFernandoAlves.PNG","0","","","","","0","Fernando Alves","A",""
"","html-keyboard-response","213","2078353","0.0-213.0","60671","DH-010","15:50:10","","","","","","","","","","","","","","null","[""<p style=\""font-size: 36px; width: 1200px; line-height: 40px;\"">Returning to the video...""]","null","","","","","","","",""
"","browser-check","214","2079339","0.0-214.0","60671","DH-010","15:50:11","1536","864","true","chrome","129.0.0","false","Windows 10","true","60.94","true","true","Browser_Check","","","","","","","","","","","",""
"","preload","215","2195678","0.0-215.0","60671","DH-010","15:52:8","","","","","","","","","","","","Preload","true","","","","false","[]","[]","[]","","","",""
"","video-keyboard-response","216","2261756","0.0-216.0","60671","DH-010","","","","","","","","","","","","","video 17","","null","[""components/stim/StimVid_Undoing1.mp4""]","null","","","","","","","",""
"","video-keyboard-response","217","2277135","0.0-217.0","60671","DH-010","","","","","","","","","","","","","video 18","","null","[""components/stim/StimVid_Undoing2.mp4""]","null","","","","","","","",""
"","image-slider-response-modified","218","2307217","0.0-218.0","60671","DH-010","15:53:59","","","","","","","","","","","","assessment 0","","30075","components/portraits/StimImgSylviaSteinetz.PNG","0","","","","","0","Sylvia Steinetz","A",""
"","image-slider-response-modified","219","2310503","0.0-219.0","60671","DH-010","15:54:3","","","","","","","","","","","","assessment 1","","3282","components/portraits/StimImgJonathanFraser.PNG","-19","","","","","-19","Jonathan Fraser","A",""
"","image-slider-response-modified","220","2313498","0.0-220.0","60671","DH-010","15:54:6","","","","","","","","","","","","assessment 2","","2991","components/portraits/StimImgFranklinReinhardt.PNG","12","","","","","12","Franklin Reinhardt","A",""
"","image-slider-response-modified","221","2316188","0.0-221.0","60671","DH-010","15:54:8","","","","","","","","","","","","assessment 3","","2686","components/portraits/StimImgGraceFraser.PNG","-12","","","","","-12","Grace Fraser","A",""
"","image-slider-response-modified","222","2318779","0.0-222.0","60671","DH-010","15:54:11","","","","","","","","","","","","assessment 4","","2588","components/portraits/StimImgElenaAlves.PNG","0","","","","","0","Elena Alves","A",""
"","image-slider-response-modified","223","2324715","0.0-223.0","60671","DH-010","15:54:17","","","","","","","","","","","","assessment 5","","5933","components/portraits/StimImgHenryFraser.PNG","0","","","","","0","Henry Fraser","A",""
"","image-slider-response-modified","224","2326030","0.0-224.0","60671","DH-010","15:54:18","","","","","","","","","","","","assessment 6","","1311","components/portraits/StimImgMiguelAlves.PNG","0","","","","","0","Miguel Alves","A",""
"","image-slider-response-modified","225","2327311","0.0-225.0","60671","DH-010","15:54:19","","","","","","","","","","","","assessment 7","","1277","components/portraits/StimImgFernandoAlves.PNG","0","","","","","0","Fernando Alves","A",""
"","html-keyboard-response","226","2328314","0.0-226.0","60671","DH-010","15:54:20","","","","","","","","","","","","","","null","[""<p style=\""font-size: 36px; width: 1200px; line-height: 40px;\"">Returning to the video...""]","null","","","","","","","",""
"","browser-check","227","2329305","0.0-227.0","60671","DH-010","15:54:21","1536","730","true","chrome","129.0.0","false","Windows 10","true","60.73","true","true","Browser_Check","","","","","","","","","","","",""
"","video-keyboard-response","228","2448485","0.0-228.0","60671","DH-010","15:56:21","","","","","","","","","","","","video18","","null","[""components/stim/StimVid_Undoing2.mp4""]","null","","","","","","","",""
"","image-slider-response-modified","229","2458846","0.0-229.0","60671","DH-010","15:56:31","","","","","","","","","","","","assessment 0","","10354","components/portraits/StimImgSylviaSteinetz.PNG","0","","","","","0","Sylvia Steinetz","A",""
"","image-slider-response-modified","230","2460364","0.0-230.0","60671","DH-010","15:56:32","","","","","","","","","","","","assessment 1","","1514","components/portraits/StimImgJonathanFraser.PNG","-19","","","","","-19","Jonathan Fraser","A",""
"","image-slider-response-modified","231","2461484","0.0-231.0","60671","DH-010","15:56:34","","","","","","","","","","","","assessment 2","","1116","components/portraits/StimImgFranklinReinhardt.PNG","12","","","","","12","Franklin Reinhardt","A",""
"","image-slider-response-modified","232","2462534","0.0-232.0","60671","DH-010","15:56:35","","","","","","","","","","","","assessment 3","","1047","components/portraits/StimImgGraceFraser.PNG","-12","","","","","-12","Grace Fraser","A",""
"","image-slider-response-modified","233","2463786","0.0-233.0","60671","DH-010","15:56:36","","","","","","","","","","","","assessment 4","","1248","components/portraits/StimImgElenaAlves.PNG","0","","","","","0","Elena Alves","A",""
"","image-slider-response-modified","234","2464991","0.0-234.0","60671","DH-010","15:56:37","","","","","","","","","","","","assessment 5","","1202","components/portraits/StimImgHenryFraser.PNG","0","","","","","0","Henry Fraser","A",""
"","image-slider-response-modified","235","2466079","0.0-235.0","60671","DH-010","15:56:38","","","","","","","","","","","","assessment 6","","1084","components/portraits/StimImgMiguelAlves.PNG","0","","","","","0","Miguel Alves","A",""
"","image-slider-response-modified","236","2467133","0.0-236.0","60671","DH-010","15:56:39","","","","","","","","","","","","assessment 7","","1051","components/portraits/StimImgFernandoAlves.PNG","0","","","","","0","Fernando Alves","A",""
"","html-keyboard-response","237","2468136","0.0-237.0","60671","DH-010","15:56:40","","","","","","","","","","","","","","null","[""<p style=\""font-size: 36px; width: 1200px; line-height: 40px;\"">Returning to the video...""]","null","","","","","","","",""
"","browser-check","238","2469123","0.0-238.0","60671","DH-010","15:56:41","1536","730","true","chrome","129.0.0","false","Windows 10","true","60.96","true","true","Browser_Check","","","","","","","","","","","",""
"","video-keyboard-response","239","2585060","0.0-239.0","60671","DH-010","15:58:37","","","","","","","","","","","","video19","","null","[""components/stim/StimVid_Undoing2.mp4""]","null","","","","","","","",""
"","image-slider-response-modified","240","2597777","0.0-240.0","60671","DH-010","15:58:50","","","","","","","","","","","","assessment 0","","12708","components/portraits/StimImgSylviaSteinetz.PNG","0","","","","","0","Sylvia Steinetz","A",""
"","image-slider-response-modified","241","2599437","0.0-241.0","60671","DH-010","15:58:51","","","","","","","","","","","","assessment 1","","1656","components/portraits/StimImgJonathanFraser.PNG","-19","","","","","-19","Jonathan Fraser","A",""
"","image-slider-response-modified","242","2600447","0.0-242.0","60671","DH-010","15:58:52","","","","","","","","","","","","assessment 2","","1006","components/portraits/StimImgFranklinReinhardt.PNG","12","","","","","12","Franklin Reinhardt","A",""
"","image-slider-response-modified","243","2601680","0.0-243.0","60671","DH-010","15:58:54","","","","","","","","","","","","assessment 3","","1229","components/portraits/StimImgGraceFraser.PNG","-12","","","","","-12","Grace Fraser","A",""
"","image-slider-response-modified","244","2603096","0.0-244.0","60671","DH-010","15:58:55","","","","","","","","","","","","assessment 4","","1411","components/portraits/StimImgElenaAlves.PNG","0","","","","","0","Elena Alves","A",""
"","image-slider-response-modified","245","2604192","0.0-245.0","60671","DH-010","15:58:56","","","","","","","","","","","","assessment 5","","1093","components/portraits/StimImgHenryFraser.PNG","0","","","","","0","Henry Fraser","A",""
"","image-slider-response-modified","246","2605346","0.0-246.0","60671","DH-010","15:58:57","","","","","","","","","","","","assessment 6","","1151","components/portraits/StimImgMiguelAlves.PNG","0","","","","","0","Miguel Alves","A",""
"","image-slider-response-modified","247","2606562","0.0-247.0","60671","DH-010","15:58:59","","","","","","","","","","","","assessment 7","","1213","components/portraits/StimImgFernandoAlves.PNG","0","","","","","0","Fernando Alves","A",""
"","html-keyboard-response","248","2607576","0.0-248.0","60671","DH-010","15:59:0","","","","","","","","","","","","","","null","[""<p style=\""font-size: 36px; width: 1200px; line-height: 40px;\"">Returning to the video...""]","null","","","","","","","",""
"","browser-check","249","2608572","0.0-249.0","60671","DH-010","15:59:1","1536","730","true","chrome","129.0.0","false","Windows 10","true","60.35","true","true","Browser_Check","","","","","","","","","","","",""
"","video-keyboard-response","250","2698589","0.0-250.0","60671","DH-010","16:0:31","","","","","","","","","","","","video20","","null","[""components/stim/StimVid_Undoing2.mp4""]","null","","","","","","","",""
"","image-slider-response-modified","251","2707569","0.0-251.0","60671","DH-010","16:0:40","","","","","","","","","","","","assessment 0","","8973","components/portraits/StimImgSylviaSteinetz.PNG","0","","","","","0","Sylvia Steinetz","A",""
"","image-slider-response-modified","252","2709397","0.0-252.0","60671","DH-010","16:0:41","","","","","","","","","","","","assessment 1","","1824","components/portraits/StimImgJonathanFraser.PNG","-19","","","","","-19","Jonathan Fraser","A",""
"","image-slider-response-modified","253","2711266","0.0-253.0","60671","DH-010","16:0:43","","","","","","","","","","","","assessment 2","","1866","components/portraits/StimImgFranklinReinhardt.PNG","12","","","","","12","Franklin Reinhardt","A",""
"","image-slider-response-modified","254","2713167","0.0-254.0","60671","DH-010","16:0:45","","","","","","","","","","","","assessment 3","","1897","components/portraits/StimImgGraceFraser.PNG","-12","","","","","-12","Grace Fraser","A",""
"","image-slider-response-modified","255","2715531","0.0-255.0","60671","DH-010","16:0:48","","","","","","","","","","","","assessment 4","","2360","components/portraits/StimImgElenaAlves.PNG","0","","","","","0","Elena Alves","A",""
"","image-slider-response-modified","256","2717388","0.0-256.0","60671","DH-010","16:0:49","","","","","","","","","","","","assessment 5","","1853","components/portraits/StimImgHenryFraser.PNG","0","","","","","0","Henry Fraser","A",""
"","image-slider-response-modified","257","2719247","0.0-257.0","60671","DH-010","16:0:51","","","","","","","","","","","","assessment 6","","1856","components/portraits/StimImgMiguelAlves.PNG","0","","","","","0","Miguel Alves","A",""
"","image-slider-response-modified","258","2721629","0.0-258.0","60671","DH-010","16:0:54","","","","","","","","","","","","assessment 7","","2378","components/portraits/StimImgFernandoAlves.PNG","0","","","","","0","Fernando Alves","A",""
"","html-keyboard-response","259","2722631","0.0-259.0","60671","DH-010","16:0:55","","","","","","","","","","","","","","null","[""<p style=\""font-size: 36px; width: 1200px; line-height: 40px;\"">Returning to the video...""]","null","","","","","","","",""
"","browser-check","260","2723618","0.0-260.0","60671","DH-010","16:0:56","1536","730","true","chrome","129.0.0","false","Windows 10","true","60.9","true","true","Browser_Check","","","","","","","","","","","",""
"","video-keyboard-response","261","2799612","0.0-261.0","60671","DH-010","16:2:12","","","","","","","","","","","","video21","","null","[""components/stim/StimVid_Undoing2.mp4""]","null","","","","","","","",""
"","image-slider-response-modified","262","2809015","0.0-262.0","60671","DH-010","16:2:21","","","","","","","","","","","","assessment 0","","9397","components/portraits/StimImgSylviaSteinetz.PNG","0","","","","","0","Sylvia Steinetz","A",""
"","image-slider-response-modified","263","2810552","0.0-263.0","60671","DH-010","16:2:23","","","","","","","","","","","","assessment 1","","1533","components/portraits/StimImgJonathanFraser.PNG","-19","","","","","-19","Jonathan Fraser","A",""
"","image-slider-response-modified","264","2811937","0.0-264.0","60671","DH-010","16:2:24","","","","","","","","","","","","assessment 2","","1381","components/portraits/StimImgFranklinReinhardt.PNG","12","","","","","12","Franklin Reinhardt","A",""
"","image-slider-response-modified","265","2812950","0.0-265.0","60671","DH-010","16:2:25","","","","","","","","","","","","assessment 3","","1009","components/portraits/StimImgGraceFraser.PNG","-12","","","","","-12","Grace Fraser","A",""
"","image-slider-response-modified","266","2813779","0.0-266.0","60671","DH-010","16:2:26","","","","","","","","","","","","assessment 4","","826","components/portraits/StimImgElenaAlves.PNG","0","","","","","0","Elena Alves","A",""
"","image-slider-response-modified","267","2814400","0.0-267.0","60671","DH-010","16:2:26","","","","","","","","","","","","assessment 5","","616","components/portraits/StimImgHenryFraser.PNG","0","","","","","0","Henry Fraser","A",""
"","image-slider-response-modified","268","2814999","0.0-268.0","60671","DH-010","16:2:27","","","","","","","","","","","","assessment 6","","595","components/portraits/StimImgMiguelAlves.PNG","0","","","","","0","Miguel Alves","A",""
"","image-slider-response-modified","269","2815480","0.0-269.0","60671","DH-010","16:2:28","","","","","","","","","","","","assessment 7","","474","components/portraits/StimImgFernandoAlves.PNG","0","","","","","0","Fernando Alves","A",""
"","html-keyboard-response","270","2816496","0.0-270.0","60671","DH-010","16:2:29","","","","","","","","","","","","","","null","[""<p style=\""font-size: 36px; width: 1200px; line-height: 40px;\"">Returning to the video...""]","null","","","","","","","",""
"","browser-check","271","2817491","0.0-271.0","60671","DH-010","16:2:30","1536","730","true","chrome","129.0.0","false","Windows 10","true","60.5","true","true","Browser_Check","","","","","","","","","","","",""
"","video-keyboard-response","272","2890816","0.0-272.0","60671","DH-010","16:3:43","","","","","","","","","","","","video22","","null","[""components/stim/StimVid_Undoing2.mp4""]","null","","","","","","","",""
"","image-slider-response-modified","273","2896735","0.0-273.0","60671","DH-010","16:3:49","","","","","","","","","","","","assessment 0","","5911","components/portraits/StimImgSylviaSteinetz.PNG","0","","","","","0","Sylvia Steinetz","A",""
"","image-slider-response-modified","274","2897550","0.0-274.0","60671","DH-010","16:3:50","","","","","","","","","","","","assessment 1","","812","components/portraits/StimImgJonathanFraser.PNG","-19","","","","","-19","Jonathan Fraser","A",""
"","image-slider-response-modified","275","2898305","0.0-275.0","60671","DH-010","16:3:50","","","","","","","","","","","","assessment 2","","751","components/portraits/StimImgFranklinReinhardt.PNG","12","","","","","12","Franklin Reinhardt","A",""
"","image-slider-response-modified","276","2898999","0.0-276.0","60671","DH-010","16:3:51","","","","","","","","","","","","assessment 3","","691","components/portraits/StimImgGraceFraser.PNG","-12","","","","","-12","Grace Fraser","A",""
"","image-slider-response-modified","277","2899755","0.0-277.0","60671","DH-010","16:3:52","","","","","","","","","","","","assessment 4","","748","components/portraits/StimImgElenaAlves.PNG","0","","","","","0","Elena Alves","A",""
"","image-slider-response-modified","278","2900457","0.0-278.0","60671","DH-010","16:3:53","","","","","","","","","","","","assessment 5","","698","components/portraits/StimImgHenryFraser.PNG","0","","","","","0","Henry Fraser","A",""
"","image-slider-response-modified","279","2901177","0.0-279.0","60671","DH-010","16:3:53","","","","","","","","","","","","assessment 6","","716","components/portraits/StimImgMiguelAlves.PNG","0","","","","","0","Miguel Alves","A",""
"","image-slider-response-modified","280","2901894","0.0-280.0","60671","DH-010","16:3:54","","","","","","","","","","","","assessment 7","","714","components/portraits/StimImgFernandoAlves.PNG","0","","","","","0","Fernando Alves","A",""
"","html-keyboard-response","281","2902906","0.0-281.0","60671","DH-010","16:3:55","","","","","","","","","","","","","","null","[""<p style=\""font-size: 36px; width: 1200px; line-height: 40px;\"">Returning to the video...""]","null","","","","","","","",""
"","browser-check","282","2903900","0.0-282.0","60671","DH-010","16:3:56","1536","730","true","chrome","129.0.0","false","Windows 10","true","60.56","true","true","Browser_Check","","","","","","","","","","","",""
"","video-keyboard-response","283","2977258","0.0-283.0","60671","DH-010","16:5:9","","","","","","","","","","","","video23","","null","[""components/stim/StimVid_Undoing2.mp4""]","null","","","","","","","",""
"","image-slider-response-modified","284","2981863","0.0-284.0","60671","DH-010","16:5:14","","","","","","","","","","","","assessment 0","","4597","components/portraits/StimImgSylviaSteinetz.PNG","0","","","","","0","Sylvia Steinetz","A",""
"","image-slider-response-modified","285","2996167","0.0-285.0","60671","DH-010","16:5:28","","","","","","","","","","","","assessment 1","","14300","components/portraits/StimImgJonathanFraser.PNG","-25","","","","","-19","Jonathan Fraser","A",""
"","image-slider-response-modified","286","2997535","0.0-286.0","60671","DH-010","16:5:30","","","","","","","","","","","","assessment 2","","1364","components/portraits/StimImgFranklinReinhardt.PNG","12","","","","","12","Franklin Reinhardt","A",""
"","image-slider-response-modified","287","2998365","0.0-287.0","60671","DH-010","16:5:30","","","","","","","","","","","","assessment 3","","826","components/portraits/StimImgGraceFraser.PNG","-12","","","","","-12","Grace Fraser","A",""
"","image-slider-response-modified","288","2999266","0.0-288.0","60671","DH-010","16:5:31","","","","","","","","","","","","assessment 4","","898","components/portraits/StimImgElenaAlves.PNG","0","","","","","0","Elena Alves","A",""
"","image-slider-response-modified","289","2999925","0.0-289.0","60671","DH-010","16:5:32","","","","","","","","","","","","assessment 5","","655","components/portraits/StimImgHenryFraser.PNG","0","","","","","0","Henry Fraser","A",""
"","image-slider-response-modified","290","3000582","0.0-290.0","60671","DH-010","16:5:33","","","","","","","","","","","","assessment 6","","654","components/portraits/StimImgMiguelAlves.PNG","0","","","","","0","Miguel Alves","A",""
"","image-slider-response-modified","291","3001252","0.0-291.0","60671","DH-010","16:5:33","","","","","","","","","","","","assessment 7","","666","components/portraits/StimImgFernandoAlves.PNG","0","","","","","0","Fernando Alves","A",""
"","html-keyboard-response","292","3002261","0.0-292.0","60671","DH-010","16:5:34","","","","","","","","","","","","","","null","[""<p style=\""font-size: 36px; width: 1200px; line-height: 40px;\"">Returning to the video...""]","null","","","","","","","",""
"","browser-check","293","3003252","0.0-293.0","60671","DH-010","16:5:35","1536","730","true","chrome","129.0.0","false","Windows 10","true","60.68","true","true","Browser_Check","","","","","","","","","","","",""
"","video-keyboard-response","294","3073180","0.0-294.0","60671","DH-010","16:6:45","","","","","","","","","","","","video24","","null","[""components/stim/StimVid_Undoing2.mp4""]","null","","","","","","","",""
"","image-slider-response-modified","295","3077364","0.0-295.0","60671","DH-010","16:6:49","","","","","","","","","","","","assessment 0","","4178","components/portraits/StimImgSylviaSteinetz.PNG","0","","","","","0","Sylvia Steinetz","A",""
"","image-slider-response-modified","296","3078600","0.0-296.0","60671","DH-010","16:6:51","","","","","","","","","","","","assessment 1","","1231","components/portraits/StimImgJonathanFraser.PNG","-25","","","","","-25","Jonathan Fraser","A",""
"","image-slider-response-modified","297","3079394","0.0-297.0","60671","DH-010","16:6:51","","","","","","","","","","","","assessment 2","","791","components/portraits/StimImgFranklinReinhardt.PNG","12","","","","","12","Franklin Reinhardt","A",""
"","image-slider-response-modified","298","3079866","0.0-298.0","60671","DH-010","16:6:52","","","","","","","","","","","","assessment 3","","469","components/portraits/StimImgGraceFraser.PNG","-12","","","","","-12","Grace Fraser","A",""
"","image-slider-response-modified","299","3080442","0.0-299.0","60671","DH-010","16:6:52","","","","","","","","","","","","assessment 4","","570","components/portraits/StimImgElenaAlves.PNG","0","","","","","0","Elena Alves","A",""
"","image-slider-response-modified","300","3081005","0.0-300.0","60671","DH-010","16:6:53","","","","","","","","","","","","assessment 5","","559","components/portraits/StimImgHenryFraser.PNG","0","","","","","0","Henry Fraser","A",""
"","image-slider-response-modified","301","3082023","0.0-301.0","60671","DH-010","16:6:54","","","","","","","","","","","","assessment 6","","1014","components/portraits/StimImgMiguelAlves.PNG","0","","","","","0","Miguel Alves","A",""
"","image-slider-response-modified","302","3082991","0.0-302.0","60671","DH-010","16:6:55","","","","","","","","","","","","assessment 7","","965","components/portraits/StimImgFernandoAlves.PNG","0","","","","","0","Fernando Alves","A",""
"","html-keyboard-response","303","3084002","0.0-303.0","60671","DH-010","16:6:56","","","","","","","","","","","","","","null","[""<p style=\""font-size: 36px; width: 1200px; line-height: 40px;\"">Returning to the video...""]","null","","","","","","","",""
"","browser-check","304","3084997","0.0-304.0","60671","DH-010","16:6:57","1536","730","true","chrome","129.0.0","false","Windows 10","true","60.43","true","true","Browser_Check","","","","","","","","","","","",""
"","video-keyboard-response","305","3166355","0.0-305.0","60671","DH-010","16:8:18","","","","","","","","","","","","video25","","null","[""components/stim/StimVid_Undoing2.mp4""]","null","","","","","","","",""
"","image-slider-response-modified","306","3171890","0.0-306.0","60671","DH-010","16:8:24","","","","","","","","","","","","assessment 0","","5528","components/portraits/StimImgSylviaSteinetz.PNG","0","","","","","0","Sylvia Steinetz","A",""
"","image-slider-response-modified","307","3173177","0.0-307.0","60671","DH-010","16:8:25","","","","","","","","","","","","assessment 1","","1284","components/portraits/StimImgJonathanFraser.PNG","-25","","","","","-25","Jonathan Fraser","A",""
"","image-slider-response-modified","308","3173679","0.0-308.0","60671","DH-010","16:8:26","","","","","","","","","","","","assessment 2","","496","components/portraits/StimImgFranklinReinhardt.PNG","12","","","","","12","Franklin Reinhardt","A",""
"","image-slider-response-modified","309","3174279","0.0-309.0","60671","DH-010","16:8:26","","","","","","","","","","","","assessment 3","","596","components/portraits/StimImgGraceFraser.PNG","-12","","","","","-12","Grace Fraser","A",""
"","image-slider-response-modified","310","3174994","0.0-310.0","60671","DH-010","16:8:27","","","","","","","","","","","","assessment 4","","711","components/portraits/StimImgElenaAlves.PNG","0","","","","","0","Elena Alves","A",""
"","image-slider-response-modified","311","3175688","0.0-311.0","60671","DH-010","16:8:28","","","","","","","","","","","","assessment 5","","691","components/portraits/StimImgHenryFraser.PNG","0","","","","","0","Henry Fraser","A",""
"","image-slider-response-modified","312","3176460","0.0-312.0","60671","DH-010","16:8:29","","","","","","","","","","","","assessment 6","","768","components/portraits/StimImgMiguelAlves.PNG","0","","","","","0","Miguel Alves","A",""
"","image-slider-response-modified","313","3177071","0.0-313.0","60671","DH-010","16:8:29","","","","","","","","","","","","assessment 7","","604","components/portraits/StimImgFernandoAlves.PNG","0","","","","","0","Fernando Alves","A",""
"","html-keyboard-response","314","3178084","0.0-314.0","60671","DH-010","16:8:30","","","","","","","","","","","","","","null","[""<p style=\""font-size: 36px; width: 1200px; line-height: 40px;\"">Returning to the video...""]","null","","","","","","","",""
"","browser-check","315","3179086","0.0-315.0","60671","DH-010","16:8:31","1536","730","true","chrome","129.0.0","false","Windows 10","true","60.05","true","true","Browser_Check","","","","","","","","","","","",""
"","video-keyboard-response","316","3252422","0.0-316.0","60671","DH-010","16:9:44","","","","","","","","","","","","video26","","null","[""components/stim/StimVid_Undoing2.mp4""]","null","","","","","","","",""
"","image-slider-response-modified","317","3256912","0.0-317.0","60671","DH-010","16:9:49","","","","","","","","","","","","assessment 0","","4486","components/portraits/StimImgSylviaSteinetz.PNG","0","","","","","0","Sylvia Steinetz","A",""
"","image-slider-response-modified","318","3258142","0.0-318.0","60671","DH-010","16:9:50","","","","","","","","","","","","assessment 1","","1226","components/portraits/StimImgJonathanFraser.PNG","-25","","","","","-25","Jonathan Fraser","A",""
"","image-slider-response-modified","319","3258909","0.0-319.0","60671","DH-010","16:9:51","","","","","","","","","","","","assessment 2","","764","components/portraits/StimImgFranklinReinhardt.PNG","12","","","","","12","Franklin Reinhardt","A",""
"","image-slider-response-modified","320","3259643","0.0-320.0","60671","DH-010","16:9:52","","","","","","","","","","","","assessment 3","","731","components/portraits/StimImgGraceFraser.PNG","-12","","","","","-12","Grace Fraser","A",""
"","image-slider-response-modified","321","3260432","0.0-321.0","60671","DH-010","16:9:52","","","","","","","","","","","","assessment 4","","781","components/portraits/StimImgElenaAlves.PNG","0","","","","","0","Elena Alves","A",""
"","image-slider-response-modified","322","3261108","0.0-322.0","60671","DH-010","16:9:53","","","","","","","","","","","","assessment 5","","672","components/portraits/StimImgHenryFraser.PNG","0","","","","","0","Henry Fraser","A",""
"","image-slider-response-modified","323","3261738","0.0-323.0","60671","DH-010","16:9:54","","","","","","","","","","","","assessment 6","","626","components/portraits/StimImgMiguelAlves.PNG","0","","","","","0","Miguel Alves","A",""
"","image-slider-response-modified","324","3262388","0.0-324.0","60671","DH-010","16:9:54","","","","","","","","","","","","assessment 7","","645","components/portraits/StimImgFernandoAlves.PNG","0","","","","","0","Fernando Alves","A",""
"","html-keyboard-response","325","3263404","0.0-325.0","60671","DH-010","16:9:55","","","","","","","","","","","","","","null","[""<p style=\""font-size: 36px; width: 1200px; line-height: 40px;\"">Returning to the video...""]","null","","","","","","","",""
"","browser-check","326","3264395","0.0-326.0","60671","DH-010","16:9:56","1536","730","true","chrome","129.0.0","false","Windows 10","true","60.63","true","true","Browser_Check","","","","","","","","","","","",""
"","video-keyboard-response","327","3345629","0.0-327.0","60671","DH-010","16:11:18","","","","","","","","","","","","video27","","null","[""components/stim/StimVid_Undoing2.mp4""]","null","","","","","","","",""
"","image-slider-response-modified","328","3349962","0.0-328.0","60671","DH-010","16:11:22","","","","","","","","","","","","assessment 0","","4328","components/portraits/StimImgSylviaSteinetz.PNG","0","","","","","0","Sylvia Steinetz","A",""
"","image-slider-response-modified","329","3350447","0.0-329.0","60671","DH-010","16:11:22","","","","","","","","","","","","assessment 1","","482","components/portraits/StimImgJonathanFraser.PNG","-25","","","","","-25","Jonathan Fraser","A",""
"","image-slider-response-modified","330","3351214","0.0-330.0","60671","DH-010","16:11:23","","","","","","","","","","","","assessment 2","","757","components/portraits/StimImgFranklinReinhardt.PNG","12","","","","","12","Franklin Reinhardt","A",""
"","image-slider-response-modified","331","3351782","0.0-331.0","60671","DH-010","16:11:24","","","","","","","","","","","","assessment 3","","562","components/portraits/StimImgGraceFraser.PNG","-12","","","","","-12","Grace Fraser","A",""
"","image-slider-response-modified","332","3352310","0.0-332.0","60671","DH-010","16:11:24","","","","","","","","","","","","assessment 4","","522","components/portraits/StimImgElenaAlves.PNG","0","","","","","0","Elena Alves","A",""
"","image-slider-response-modified","333","3352794","0.0-333.0","60671","DH-010","16:11:25","","","","","","","","","","","","assessment 5","","481","components/portraits/StimImgHenryFraser.PNG","0","","","","","0","Henry Fraser","A",""
"","image-slider-response-modified","334","3353438","0.0-334.0","60671","DH-010","16:11:25","","","","","","","","","","","","assessment 6","","639","components/portraits/StimImgMiguelAlves.PNG","0","","","","","0","Miguel Alves","A",""
"","image-slider-response-modified","335","3354124","0.0-335.0","60671","DH-010","16:11:26","","","","","","","","","","","","assessment 7","","679","components/portraits/StimImgFernandoAlves.PNG","0","","","","","0","Fernando Alves","A",""
"","html-keyboard-response","336","3355129","0.0-336.0","60671","DH-010","16:11:27","","","","","","","","","","","","","","null","[""<p style=\""font-size: 36px; width: 1200px; line-height: 40px;\"">Returning to the video...""]","null","","","","","","","",""
"","browser-check","337","3356117","0.0-337.0","60671","DH-010","16:11:28","1536","730","true","chrome","129.0.0","false","Windows 10","true","60.82","true","true","Browser_Check","","","","","","","","","","","",""
"","video-keyboard-response","338","3457606","0.0-338.0","60671","DH-010","16:13:10","","","","","","","","","","","","video28","","null","[""components/stim/StimVid_Undoing2.mp4""]","null","","","","","","","",""
"","image-slider-response-modified","339","3461209","0.0-339.0","60671","DH-010","16:13:13","","","","","","","","","","","","assessment 0","","3596","components/portraits/StimImgSylviaSteinetz.PNG","0","","","","","0","Sylvia Steinetz","A",""
"","image-slider-response-modified","340","3464801","0.0-340.0","60671","DH-010","16:13:17","","","","","","","","","","","","assessment 1","","3589","components/portraits/StimImgJonathanFraser.PNG","-25","","","","","-25","Jonathan Fraser","A",""
"","image-slider-response-modified","341","3469757","0.0-341.0","60671","DH-010","16:13:22","","","","","","","","","","","","assessment 2","","4953","components/portraits/StimImgFranklinReinhardt.PNG","12","","","","","12","Franklin Reinhardt","A",""
"","image-slider-response-modified","342","3479229","0.0-342.0","60671","DH-010","16:13:31","","","","","","","","","","","","assessment 3","","9468","components/portraits/StimImgGraceFraser.PNG","-15","","","","","-12","Grace Fraser","A",""
"","image-slider-response-modified","343","3481688","0.0-343.0","60671","DH-010","16:13:34","","","","","","","","","","","","assessment 4","","2456","components/portraits/StimImgElenaAlves.PNG","0","","","","","0","Elena Alves","A",""
"","image-slider-response-modified","344","3495945","0.0-344.0","60671","DH-010","16:13:48","","","","","","","","","","","","assessment 5","","14253","components/portraits/StimImgHenryFraser.PNG","80","","","","","0","Henry Fraser","A",""
"","image-slider-response-modified","345","3506399","0.0-345.0","60671","DH-010","16:13:58","","","","","","","","","","","","assessment 6","","10450","components/portraits/StimImgMiguelAlves.PNG","90","","","","","0","Miguel Alves","A",""
"","image-slider-response-modified","346","3510419","0.0-346.0","60671","DH-010","16:14:2","","","","","","","","","","","","assessment 7","","4017","components/portraits/StimImgFernandoAlves.PNG","0","","","","","0","Fernando Alves","A",""
"","html-keyboard-response","347","3511421","0.0-347.0","60671","DH-010","16:14:3","","","","","","","","","","","","","","null","[""<p style=\""font-size: 36px; width: 1200px; line-height: 40px;\"">Returning to the video...""]","null","","","","","","","",""
"","browser-check","348","3512411","0.0-348.0","60671","DH-010","16:14:4","1536","730","true","chrome","129.0.0","false","Windows 10","true","60.76","true","true","Browser_Check","","","","","","","","","","","",""
"","video-keyboard-response","349","3624067","0.0-349.0","60671","DH-010","16:15:56","","","","","","","","","","","","video29","","null","[""components/stim/StimVid_Undoing2.mp4""]","null","","","","","","","",""
"","image-slider-response-modified","350","3627342","0.0-350.0","60671","DH-010","16:15:59","","","","","","","","","","","","assessment 0","","3269","components/portraits/StimImgSylviaSteinetz.PNG","0","","","","","0","Sylvia Steinetz","A",""
"","image-slider-response-modified","351","3628843","0.0-351.0","60671","DH-010","16:16:1","","","","","","","","","","","","assessment 1","","1492","components/portraits/StimImgJonathanFraser.PNG","-25","","","","","-25","Jonathan Fraser","A",""
"","image-slider-response-modified","352","3630262","0.0-352.0","60671","DH-010","16:16:2","","","","","","","","","","","","assessment 2","","1411","components/portraits/StimImgFranklinReinhardt.PNG","12","","","","","12","Franklin Reinhardt","A",""
"","image-slider-response-modified","353","3632900","0.0-353.0","60671","DH-010","16:16:5","","","","","","","","","","","","assessment 3","","2634","components/portraits/StimImgGraceFraser.PNG","-15","","","","","-15","Grace Fraser","A",""
"","image-slider-response-modified","354","3634713","0.0-354.0","60671","DH-010","16:16:7","","","","","","","","","","","","assessment 4","","1810","components/portraits/StimImgElenaAlves.PNG","0","","","","","0","Elena Alves","A",""
"","image-slider-response-modified","355","3636190","0.0-355.0","60671","DH-010","16:16:8","","","","","","","","","","","","assessment 5","","1475","components/portraits/StimImgHenryFraser.PNG","80","","","","","80","Henry Fraser","A",""
"","image-slider-response-modified","356","3637688","0.0-356.0","60671","DH-010","16:16:10","","","","","","","","","","","","assessment 6","","1494","components/portraits/StimImgMiguelAlves.PNG","90","","","","","90","Miguel Alves","A",""
"","image-slider-response-modified","357","3639203","0.0-357.0","60671","DH-010","16:16:11","","","","","","","","","","","","assessment 7","","1512","components/portraits/StimImgFernandoAlves.PNG","0","","","","","0","Fernando Alves","A",""
"","html-keyboard-response","358","3640219","0.0-358.0","60671","DH-010","16:16:12","","","","","","","","","","","","","","null","[""<p style=\""font-size: 36px; width: 1200px; line-height: 40px;\"">Returning to the video...""]","null","","","","","","","",""
"","browser-check","359","3641216","0.0-359.0","60671","DH-010","16:16:13","1536","730","true","chrome","129.0.0","false","Windows 10","true","60.28","true","true","Browser_Check","","","","","","","","","","","",""
"","video-keyboard-response","360","3712695","0.0-360.0","60671","DH-010","16:17:25","","","","","","","","","","","","video30","","null","[""components/stim/StimVid_Undoing2.mp4""]","null","","","","","","","",""
"","image-slider-response-modified","361","3720140","0.0-361.0","60671","DH-010","16:17:32","","","","","","","","","","","","assessment 0","","7437","components/portraits/StimImgSylviaSteinetz.PNG","0","","","","","0","Sylvia Steinetz","A",""
"","image-slider-response-modified","362","3721125","0.0-362.0","60671","DH-010","16:17:33","","","","","","","","","","","","assessment 1","","981","components/portraits/StimImgJonathanFraser.PNG","-25","","","","","-25","Jonathan Fraser","A",""
"","image-slider-response-modified","363","3721851","0.0-363.0","60671","DH-010","16:17:34","","","","","","","","","","","","assessment 2","","723","components/portraits/StimImgFranklinReinhardt.PNG","12","","","","","12","Franklin Reinhardt","A",""
"","image-slider-response-modified","364","3722632","0.0-364.0","60671","DH-010","16:17:35","","","","","","","","","","","","assessment 3","","777","components/portraits/StimImgGraceFraser.PNG","-15","","","","","-15","Grace Fraser","A",""
"","image-slider-response-modified","365","3723319","0.0-365.0","60671","DH-010","16:17:35","","","","","","","","","","","","assessment 4","","682","components/portraits/StimImgElenaAlves.PNG","0","","","","","0","Elena Alves","A",""
"","image-slider-response-modified","366","3723913","0.0-366.0","60671","DH-010","16:17:36","","","","","","","","","","","","assessment 5","","590","components/portraits/StimImgHenryFraser.PNG","80","","","","","80","Henry Fraser","A",""
"","image-slider-response-modified","367","3724552","0.0-367.0","60671","DH-010","16:17:37","","","","","","","","","","","","assessment 6","","636","components/portraits/StimImgMiguelAlves.PNG","90","","","","","90","Miguel Alves","A",""
"","image-slider-response-modified","368","3725178","0.0-368.0","60671","DH-010","16:17:37","","","","","","","","","","","","assessment 7","","623","components/portraits/StimImgFernandoAlves.PNG","0","","","","","0","Fernando Alves","A",""
"","html-keyboard-response","369","3726195","0.0-369.0","60671","DH-010","16:17:38","","","","","","","","","","","","","","null","[""<p style=\""font-size: 36px; width: 1200px; line-height: 40px;\"">Returning to the video...""]","null","","","","","","","",""
"","browser-check","370","3727193","0.0-370.0","60671","DH-010","16:17:39","1536","730","true","chrome","129.0.0","false","Windows 10","true","60.31","true","true","Browser_Check","","","","","","","","","","","",""
"","video-keyboard-response","371","3829171","0.0-371.0","60671","DH-010","16:19:21","","","","","","","","","","","","video31","","null","[""components/stim/StimVid_Undoing2.mp4""]","null","","","","","","","",""
"","image-slider-response-modified","372","3832649","0.0-372.0","60671","DH-010","16:19:25","","","","","","","","","","","","assessment 0","","3472","components/portraits/StimImgSylviaSteinetz.PNG","0","","","","","0","Sylvia Steinetz","A",""
"","image-slider-response-modified","373","3833786","0.0-373.0","60671","DH-010","16:19:26","","","","","","","","","","","","assessment 1","","1133","components/portraits/StimImgJonathanFraser.PNG","-25","","","","","-25","Jonathan Fraser","A",""
"","image-slider-response-modified","374","3834546","0.0-374.0","60671","DH-010","16:19:27","","","","","","","","","","","","assessment 2","","757","components/portraits/StimImgFranklinReinhardt.PNG","12","","","","","12","Franklin Reinhardt","A",""
"","image-slider-response-modified","375","3835279","0.0-375.0","60671","DH-010","16:19:27","","","","","","","","","","","","assessment 3","","730","components/portraits/StimImgGraceFraser.PNG","-15","","","","","-15","Grace Fraser","A",""
"","image-slider-response-modified","376","3836049","0.0-376.0","60671","DH-010","16:19:28","","","","","","","","","","","","assessment 4","","767","components/portraits/StimImgElenaAlves.PNG","0","","","","","0","Elena Alves","A",""
"","image-slider-response-modified","377","3836716","0.0-377.0","60671","DH-010","16:19:29","","","","","","","","","","","","assessment 5","","664","components/portraits/StimImgHenryFraser.PNG","80","","","","","80","Henry Fraser","A",""
"","image-slider-response-modified","378","3837366","0.0-378.0","60671","DH-010","16:19:29","","","","","","","","","","","","assessment 6","","646","components/portraits/StimImgMiguelAlves.PNG","90","","","","","90","Miguel Alves","A",""
"","image-slider-response-modified","379","3838084","0.0-379.0","60671","DH-010","16:19:30","","","","","","","","","","","","assessment 7","","714","components/portraits/StimImgFernandoAlves.PNG","0","","","","","0","Fernando Alves","A",""
"","html-keyboard-response","380","3839099","0.0-380.0","60671","DH-010","16:19:31","","","","","","","","","","","","","","null","[""<p style=\""font-size: 36px; width: 1200px; line-height: 40px;\"">Returning to the video...""]","null","","","","","","","",""
"","browser-check","381","3840089","0.0-381.0","60671","DH-010","16:19:32","1536","730","true","chrome","129.0.0","false","Windows 10","true","60.79","true","true","Browser_Check","","","","","","","","","","","",""
"","video-keyboard-response","382","3913395","0.0-382.0","60671","DH-010","16:20:45","","","","","","","","","","","","video32","","null","[""components/stim/StimVid_Undoing2.mp4""]","null","","","","","","","",""
"","image-slider-response-modified","383","3919266","0.0-383.0","60671","DH-010","16:20:51","","","","","","","","","","","","assessment 0","","5865","components/portraits/StimImgSylviaSteinetz.PNG","0","","","","","0","Sylvia Steinetz","A",""
"","image-slider-response-modified","384","3920061","0.0-384.0","60671","DH-010","16:20:52","","","","","","","","","","","","assessment 1","","788","components/portraits/StimImgJonathanFraser.PNG","-25","","","","","-25","Jonathan Fraser","A",""
"","image-slider-response-modified","385","3920801","0.0-385.0","60671","DH-010","16:20:53","","","","","","","","","","","","assessment 2","","737","components/portraits/StimImgFranklinReinhardt.PNG","12","","","","","12","Franklin Reinhardt","A",""
"","image-slider-response-modified","386","3921252","0.0-386.0","60671","DH-010","16:20:53","","","","","","","","","","","","assessment 3","","447","components/portraits/StimImgGraceFraser.PNG","-15","","","","","-15","Grace Fraser","A",""
"","image-slider-response-modified","387","3921899","0.0-387.0","60671","DH-010","16:20:54","","","","","","","","","","","","assessment 4","","643","components/portraits/StimImgElenaAlves.PNG","0","","","","","0","Elena Alves","A",""
"","image-slider-response-modified","388","3922425","0.0-388.0","60671","DH-010","16:20:54","","","","","","","","","","","","assessment 5","","523","components/portraits/StimImgHenryFraser.PNG","80","","","","","80","Henry Fraser","A",""
"","image-slider-response-modified","389","3922927","0.0-389.0","60671","DH-010","16:20:55","","","","","","","","","","","","assessment 6","","498","components/portraits/StimImgMiguelAlves.PNG","90","","","","","90","Miguel Alves","A",""
"","image-slider-response-modified","390","3923426","0.0-390.0","60671","DH-010","16:20:55","","","","","","","","","","","","assessment 7","","495","components/portraits/StimImgFernandoAlves.PNG","0","","","","","0","Fernando Alves","A",""
"","html-keyboard-response","391","3924438","0.0-391.0","60671","DH-010","16:20:56","","","","","","","","","","","","","","null","[""<p style=\""font-size: 36px; width: 1200px; line-height: 40px;\"">Returning to the video...""]","null","","","","","","","",""
"","browser-check","392","3925433","0.0-392.0","60671","DH-010","16:20:57","1536","730","true","chrome","129.0.0","false","Windows 10","true","60.45","true","true","Browser_Check","","","","","","","","","","","",""
"","video-keyboard-response","393","3992888","0.0-393.0","60671","DH-010","16:22:5","","","","","","","","","","","","video33","","null","[""components/stim/StimVid_Undoing2.mp4""]","null","","","","","","","",""
"","image-slider-response-modified","394","3995834","0.0-394.0","60671","DH-010","16:22:8","","","","","","","","","","","","assessment 0","","2941","components/portraits/StimImgSylviaSteinetz.PNG","0","","","","","0","Sylvia Steinetz","A",""
"","image-slider-response-modified","395","3996655","0.0-395.0","60671","DH-010","16:22:9","","","","","","","","","","","","assessment 1","","817","components/portraits/StimImgJonathanFraser.PNG","-25","","","","","-25","Jonathan Fraser","A",""
"","image-slider-response-modified","396","3997404","0.0-396.0","60671","DH-010","16:22:9","","","","","","","","","","","","assessment 2","","743","components/portraits/StimImgFranklinReinhardt.PNG","12","","","","","12","Franklin Reinhardt","A",""
"","image-slider-response-modified","397","3998091","0.0-397.0","60671","DH-010","16:22:10","","","","","","","","","","","","assessment 3","","679","components/portraits/StimImgGraceFraser.PNG","-15","","","","","-15","Grace Fraser","A",""
"","image-slider-response-modified","398","3999010","0.0-398.0","60671","DH-010","16:22:11","","","","","","","","","","","","assessment 4","","909","components/portraits/StimImgElenaAlves.PNG","0","","","","","0","Elena Alves","A",""
"","image-slider-response-modified","399","3999917","0.0-399.0","60671","DH-010","16:22:12","","","","","","","","","","","","assessment 5","","903","components/portraits/StimImgHenryFraser.PNG","80","","","","","80","Henry Fraser","A",""
"","image-slider-response-modified","400","4000399","0.0-400.0","60671","DH-010","16:22:12","","","","","","","","","","","","assessment 6","","479","components/portraits/StimImgMiguelAlves.PNG","90","","","","","90","Miguel Alves","A",""
"","image-slider-response-modified","401","4001107","0.0-401.0","60671","DH-010","16:22:13","","","","","","","","","","","","assessment 7","","704","components/portraits/StimImgFernandoAlves.PNG","0","","","","","0","Fernando Alves","A",""
"","html-keyboard-response","402","4002122","0.0-402.0","60671","DH-010","16:22:14","","","","","","","","","","","","","","null","[""<p style=\""font-size: 36px; width: 1200px; line-height: 40px;\"">Returning to the video...""]","null","","","","","","","",""
