"trial_id","trial_type","trial_index","time_elapsed","internal_node_id","subject_id","break_id","time","width","height","webaudio","browser","browser_version","mobile","os","fullscreen","vsync_rate","webcam","microphone","task","success","rt","stimulus","response","timeout","failed_images","failed_audio","failed_video","slider_start","character","label_condition","question_order"
"pavlovia_init","pavlovia","0","1385","0.0-0.0","60125","DH-003","19:49:10","","","","","","","","","","","","","","","","","","","","","","","",""
"","browser-check","1","2387","0.0-1.0","60125","DH-003","19:49:11","1470","831","true","chrome","129.0.0","false","Mac OS","true","60.22","true","true","Browser_Check","","","","","","","","","","","",""
"","fullscreen","2","4739","0.0-2.0","60125","DH-003","19:49:14","","","","","","","","","","","","Fullscreen","true","1349","","","","","","","","","",""
"","html-keyboard-response","3","15681","0.0-3.0","60125","DH-003","19:49:25","","","","","","","","","","","","Instruction","","10940","[""<p style=\""font-size: 36px; width: 1200px; line-height: 40px;\"">During this experiment, you will watch an episode of a publicly broadcasted murder mystery television show.<br><br>It contains adult themes and graphic language. While the video will portray a character accused of a violent crime, as well as verbal descriptions of the crime, <strong>violence will not be shown</strong>, nor will any other graphic visual content.<br><br><br>If you are not comfortable with continuing, please exit this experiment now.<br><br><br><br>Otherwise, please press the <strong>SPACE BAR</strong> to continue.</p>""]"," ","","","","","","","",""
"","preload","4","17159","0.0-4.0","60125","DH-003","19:49:26","","","","","","","","","","","","Preload","true","","","","false","[]","[]","[]","","","",""
"","image-button-response-modified","5","34814","0.0-5.0","60125","DH-003","19:49:44","","","","","","","","","","","","Consent","","17652","components/consent/SONA.png","0","","","","","","","",""
"","html-keyboard-response","6","36281","0.0-6.0","60125","DH-003","19:49:45","","","","","","","","","","","","Instr_Task","","1466","<p style=""font-size: 36px; width: 1200px; line-height: 40px;"">Thank you for agreeing to participate in this experiment! <br><br><br><br> Please press the <strong>SPACE BAR</strong> to continue</p>"," ","","","","","","","",""
"","html-keyboard-response","7","41586","0.0-7.0","60125","DH-003","19:49:51","","","","","","","","","","","","Instr_Task","","5303","<p style=""font-size: 36px; width: 1200px; line-height: 40px;"">Before we begin, please be sure that you are in a good space to complete the experiment. This space should be: <br><br><br><br> <strong>Comfortable <br><br> Distraction-free <br><br> Available for the next 60 minutes</strong> <br><br><br><br><br> Please press the <strong>SPACE BAR</strong> to continue</p>"," ","","","","","","","",""
"","html-keyboard-response","8","50070","0.0-8.0","60125","DH-003","19:49:59","","","","","","","","","","","","Instr_Task","","8483","<p style=""font-size: 36px; width: 1200px; line-height: 40px;""><strong>Please give your full attention to the experiment. This includes:</strong> <br><br><br><br> Closing or minimizing other programs on your computer <br><br> Silencing your phone or placing it somewhere it will not be distracting <br><br> Testing that your audio is working and set to a comfortable volume that you can clearly hear <br><br> Not completing this experiment with others present <br><br><br><br><br> Please press the <strong>SPACE BAR</strong> to continue</p>"," ","","","","","","","",""
"","html-keyboard-response","9","54878","0.0-9.0","60125","DH-003","19:50:4","","","","","","","","","","","","Instr_Task","","4808","<p style=""font-size: 36px; width: 1200px; line-height: 40px;"">You will watch 45 minutes of a crime mystery drama in which one character is suspected of having murdered another.<br><br><br>We will present background information about the characters of the show and the surrounding context before the episode begins.<br><br><br><br> Please press the <strong>SPACE BAR</strong> to continue</p>"," ","","","","","","","",""
"","html-keyboard-response","10","59825","0.0-10.0","60125","DH-003","19:50:9","","","","","","","","","","","","Instr_Task","","4946","<p style=""font-size: 36px; width: 1200px; line-height: 40px;"">The video will intermittently pause while you watch to assess how certain <strong>you</strong> are that different characters in the show are guilty or innocent of having committed the murder.<br><br><br><br> Please press the <strong>SPACE BAR</strong> to continue</p>"," ","","","","","","","",""
"","html-keyboard-response","11","62255","0.0-11.0","60125","DH-003","19:50:11","","","","","","","","","","","","Instr_Task","","2429","<p style=""font-size: 36px; width: 1200px; line-height: 40px;"">These certainty assessments tend to be flexible and may shift upon hearing something that a character says or seeing something that a character does or events that occur when a character is not on screen.<br><br><br>Some of this information may influence your assessments only slightly while other information may influence your assessments a great deal.<br><br><br>When prompted, please update your rating of how certain you are of each character's innocence or guilt at that moment in time. <br><br><br> Please try to be as precise as you can.<br><br><br><br> Please press the <strong>SPACE BAR</strong> to continue</p>"," ","","","","","","","",""
"","html-keyboard-response","12","64010","0.0-12.0","60125","DH-003","19:50:13","","","","","","","","","","","","Instr_Task","","1754","<p style=""font-size: 36px; width: 1200px; line-height: 40px;"">These certainty assessments will be assessed on a continuous scale. <br><br><br> The scale ranges from 100% certain that a character is guilty to 100% certain that a character is innocent.<br><br><br>Leaving the scale in the middle (i.e., 0% certain) would indicate that you are completely uncertain whether a character is innocent or guilt.<br><br><br><br> Please press the <strong>SPACE BAR</strong> to continue</p>"," ","","","","","","","",""
"","html-keyboard-response","13","64888","0.0-13.0","60125","DH-003","19:50:14","","","","","","","","","","","","Instr_Task","","877","<p style=""font-size: 36px; width: 1200px; line-height: 40px;"">After your first rating, we will mark the scale where you had last rated that character to hopefully make updating your certainty rating easier. <br><br><br>A progress bar at the top will show the order in which you will assess the characters.<br><br><br>A portrait in the center of the screen will identify which character you are assessing at that moment.<br><br><br>Let's look at an example of what this looks like.<br><br><br><br> Please press the <strong>SPACE BAR</strong> to continue</p>"," ","","","","","","","",""
"","preload","14","66522","0.0-14.0","60125","DH-003","19:50:16","","","","","","","","","","","","Preload","true","","","","false","[]","[]","[]","","","",""
"","image-slider-response-modified","15","110402","0.0-15.0","60125","DH-003","19:50:59","","","","","","","","","","","","Practice","","43878","components/portraits/StimImgFernandoAlves.PNG","-41","","","","","0","Fernando Alves","B",""
"","image-slider-response-modified","16","122904","0.0-16.0-0.0-0.0","60125","DH-003","19:51:12","","","","","","","","","","","","PracticeFailure","","12499","components/portraits/StimImgFernandoAlves.PNG","-50","","","","","0","Fernando Alves","B",""
"","html-keyboard-response","17","126526","0.0-17.0","60125","DH-003","19:51:16","","","","","","","","","","","","PracticeSuccess","","3621","[""<p style=\""font-size: 36px; width: 1200px; line-height: 40px;\"">Great! If you have any questions that you must have answered before continuing, please contact study staff via the recruitment platform.<br><br><br>If you are ready to start, we will present the background information.<br><br><br><br> Please press the <strong>SPACE BAR</strong> to continue</p>""]"," ","","","","","","","",""
"","image-keyboard-response-modified","18","143304","0.0-18.0","60125","DH-003","19:51:32","","","","","","","","","","","","Background","","16775","[""components/portraits/StimImgJonathanFraser.PNG"",""components/portraits/StimImgElenaAlves.PNG""]"," ","","","","","","","",""
"","image-keyboard-response-modified","19","151689","0.0-19.0","60125","DH-003","19:51:41","","","","","","","","","","","","Background","","8383","[""components/portraits/StimImgJonathanFraser.PNG"",""components/portraits/StimImgElenaAlves.PNG""]"," ","","","","","","","",""
"","image-keyboard-response-modified","20","164971","0.0-20.0","60125","DH-003","19:51:54","","","","","","","","","","","","Background","","13281","[""components/portraits/StimImgHenryFraser.PNG"",""components/portraits/StimImgMiguelAlves.PNG""]"," ","","","","","","","",""
"","image-keyboard-response-modified","21","176229","0.0-21.0","60125","DH-003","19:52:5","","","","","","","","","","","","Background","","11258","[""components/portraits/StimImgGraceFraser.PNG"",""components/portraits/StimImgFernandoAlves.PNG""]"," ","","","","","","","",""
"","image-keyboard-response-modified","22","185120","0.0-22.0","60125","DH-003","19:52:14","","","","","","","","","","","","Background","","8889","[""components/portraits/StimImgFranklinReinhardt.PNG"",""components/portraits/StimImgSylviaSteinetz.PNG""]"," ","","","","","","","",""
"","image-keyboard-response-modified","23","194517","0.0-23.0","60125","DH-003","19:52:24","","","","","","","","","","","","Background","","9396","[""components/portraits/StimImgHaleyFitzgerald.PNG"",""components/portraits/StimImgRobertAdelman.PNG""]"," ","","","","","","","",""
"","image-keyboard-response-modified","24","199182","0.0-24.0","60125","DH-003","19:52:28","","","","","","","","","","","","Background","","4664","[""components/portraits/StimImgJoeMendoza.PNG""]"," ","","","","","","","",""
"","html-keyboard-response","25","200423","0.0-25.0","60125","DH-003","19:52:29","","","","","","","","","","","","Instr_ExpStart","","1240","[""<p style=\""font-size: 36px; width: 1200px; line-height: 40px;\"">The experiment will now start! <br><br><br><br> Please press the <strong>SPACE BAR</strong> to continue</p>""]"," ","","","","","","","",""
"","preload","26","233450","0.0-26.0","60125","DH-003","19:53:2","","","","","","","","","","","","Preload","true","","","","false","[]","[]","[]","","","",""
"","browser-check","27","234451","0.0-27.0","60125","DH-003","19:53:3","1470","919","true","chrome","129.0.0","false","Mac OS","true","60.14","true","true","Browser_Check","","","","","","","","","","","",""
"","video-keyboard-response","28","298788","0.0-28.0","60125","DH-003","19:54:8","","","","","","","","","","","","video 0","","null","[""components/stim/StimVid_Undoing1.mp4""]","null","","","","","","","",""
"","image-slider-response-modified","29","331588","0.0-29.0","60125","DH-003","19:54:41","","","","","","","","","","","","assessment 0","","32796","components/portraits/StimImgFernandoAlves.PNG","-50","","","","","0","Fernando Alves","B",""
"","image-slider-response-modified","30","343639","0.0-30.0","60125","DH-003","19:54:53","","","","","","","","","","","","assessment 1","","12048","components/portraits/StimImgFranklinReinhardt.PNG","-50","","","","","0","Franklin Reinhardt","B",""
"","image-slider-response-modified","31","347764","0.0-31.0","60125","DH-003","19:54:57","","","","","","","","","","","","assessment 2","","4122","components/portraits/StimImgMiguelAlves.PNG","-100","","","","","0","Miguel Alves","B",""
"","image-slider-response-modified","32","355854","0.0-32.0","60125","DH-003","19:55:5","","","","","","","","","","","","assessment 3","","8088","components/portraits/StimImgGraceFraser.PNG","-45","","","","","0","Grace Fraser","B",""
"","image-slider-response-modified","33","362181","0.0-33.0","60125","DH-003","19:55:11","","","","","","","","","","","","assessment 4","","6324","components/portraits/StimImgElenaAlves.PNG","-100","","","","","0","Elena Alves","B",""
"","image-slider-response-modified","34","365947","0.0-34.0","60125","DH-003","19:55:15","","","","","","","","","","","","assessment 5","","3763","components/portraits/StimImgJonathanFraser.PNG","-46","","","","","0","Jonathan Fraser","B",""
"","image-slider-response-modified","35","369534","0.0-35.0","60125","DH-003","19:55:19","","","","","","","","","","","","assessment 6","","3584","components/portraits/StimImgSylviaSteinetz.PNG","-100","","","","","0","Sylvia Steinetz","B",""
"","image-slider-response-modified","36","372476","0.0-36.0","60125","DH-003","19:55:22","","","","","","","","","","","","assessment 7","","2938","components/portraits/StimImgHenryFraser.PNG","-100","","","","","0","Henry Fraser","B",""
"","html-keyboard-response","37","373478","0.0-37.0","60125","DH-003","19:55:23","","","","","","","","","","","","","","null","[""<p style=\""font-size: 36px; width: 1200px; line-height: 40px;\"">Returning to the video...""]","null","","","","","","","",""
"","browser-check","38","374483","0.0-38.0","60125","DH-003","19:55:24","1470","919","true","chrome","129.0.0","false","Mac OS","true","59.85","true","true","Browser_Check","","","","","","","","","","","",""
"","video-keyboard-response","39","459802","0.0-39.0","60125","DH-003","19:56:49","","","","","","","","","","","","video 1","","null","[""components/stim/StimVid_Undoing1.mp4""]","null","","","","","","","",""
"","image-slider-response-modified","40","480235","0.0-40.0","60125","DH-003","19:57:9","","","","","","","","","","","","assessment 0","","20429","components/portraits/StimImgFernandoAlves.PNG","-50","","","","","-50","Fernando Alves","B",""
"","image-slider-response-modified","41","480726","0.0-41.0","60125","DH-003","19:57:10","","","","","","","","","","","","assessment 1","","487","components/portraits/StimImgFranklinReinhardt.PNG","-50","","","","","-50","Franklin Reinhardt","B",""
"","image-slider-response-modified","42","481085","0.0-42.0","60125","DH-003","19:57:10","","","","","","","","","","","","assessment 2","","356","components/portraits/StimImgMiguelAlves.PNG","-100","","","","","-100","Miguel Alves","B",""
"","image-slider-response-modified","43","481445","0.0-43.0","60125","DH-003","19:57:10","","","","","","","","","","","","assessment 3","","356","components/portraits/StimImgGraceFraser.PNG","-45","","","","","-45","Grace Fraser","B",""
"","image-slider-response-modified","44","481747","0.0-44.0","60125","DH-003","19:57:11","","","","","","","","","","","","assessment 4","","298","components/portraits/StimImgElenaAlves.PNG","-100","","","","","-100","Elena Alves","B",""
"","image-slider-response-modified","45","482008","0.0-45.0","60125","DH-003","19:57:11","","","","","","","","","","","","assessment 5","","257","components/portraits/StimImgJonathanFraser.PNG","-46","","","","","-46","Jonathan Fraser","B",""
"","image-slider-response-modified","46","482245","0.0-46.0","60125","DH-003","19:57:11","","","","","","","","","","","","assessment 6","","233","components/portraits/StimImgSylviaSteinetz.PNG","-100","","","","","-100","Sylvia Steinetz","B",""
"","image-slider-response-modified","47","482482","0.0-47.0","60125","DH-003","19:57:12","","","","","","","","","","","","assessment 7","","233","components/portraits/StimImgHenryFraser.PNG","-100","","","","","-100","Henry Fraser","B",""
"","html-keyboard-response","48","483485","0.0-48.0","60125","DH-003","19:57:13","","","","","","","","","","","","","","null","[""<p style=\""font-size: 36px; width: 1200px; line-height: 40px;\"">Returning to the video...""]","null","","","","","","","",""
"","browser-check","49","484481","0.0-49.0","60125","DH-003","19:57:14","1470","919","true","chrome","129.0.0","false","Mac OS","true","60.35","true","true","Browser_Check","","","","","","","","","","","",""
"","video-keyboard-response","50","565805","0.0-50.0","60125","DH-003","19:58:35","","","","","","","","","","","","video 2","","null","[""components/stim/StimVid_Undoing1.mp4""]","null","","","","","","","",""
"","image-slider-response-modified","51","570270","0.0-51.0","60125","DH-003","19:58:39","","","","","","","","","","","","assessment 0","","4463","components/portraits/StimImgFernandoAlves.PNG","-50","","","","","-50","Fernando Alves","B",""
"","image-slider-response-modified","52","572182","0.0-52.0","60125","DH-003","19:58:41","","","","","","","","","","","","assessment 1","","1908","components/portraits/StimImgFranklinReinhardt.PNG","-50","","","","","-50","Franklin Reinhardt","B",""
"","image-slider-response-modified","53","573285","0.0-53.0","60125","DH-003","19:58:42","","","","","","","","","","","","assessment 2","","1100","components/portraits/StimImgMiguelAlves.PNG","-100","","","","","-100","Miguel Alves","B",""
"","image-slider-response-modified","54","573750","0.0-54.0","60125","DH-003","19:58:43","","","","","","","","","","","","assessment 3","","462","components/portraits/StimImgGraceFraser.PNG","-45","","","","","-45","Grace Fraser","B",""
"","image-slider-response-modified","55","574094","0.0-55.0","60125","DH-003","19:58:43","","","","","","","","","","","","assessment 4","","341","components/portraits/StimImgElenaAlves.PNG","-100","","","","","-100","Elena Alves","B",""
"","image-slider-response-modified","56","574429","0.0-56.0","60125","DH-003","19:58:43","","","","","","","","","","","","assessment 5","","332","components/portraits/StimImgJonathanFraser.PNG","-46","","","","","-46","Jonathan Fraser","B",""
"","image-slider-response-modified","57","574780","0.0-57.0","60125","DH-003","19:58:44","","","","","","","","","","","","assessment 6","","348","components/portraits/StimImgSylviaSteinetz.PNG","-100","","","","","-100","Sylvia Steinetz","B",""
"","image-slider-response-modified","58","575098","0.0-58.0","60125","DH-003","19:58:44","","","","","","","","","","","","assessment 7","","315","components/portraits/StimImgHenryFraser.PNG","-100","","","","","-100","Henry Fraser","B",""
"","html-keyboard-response","59","576100","0.0-59.0","60125","DH-003","19:58:45","","","","","","","","","","","","","","null","[""<p style=\""font-size: 36px; width: 1200px; line-height: 40px;\"">Returning to the video...""]","null","","","","","","","",""
"","browser-check","60","577113","0.0-60.0","60125","DH-003","19:58:46","1470","919","true","chrome","129.0.0","false","Mac OS","true","60.07","true","true","Browser_Check","","","","","","","","","","","",""
"","video-keyboard-response","61","646504","0.0-61.0","60125","DH-003","19:59:56","","","","","","","","","","","","video 3","","null","[""components/stim/StimVid_Undoing1.mp4""]","null","","","","","","","",""
"","image-slider-response-modified","62","649977","0.0-62.0","60125","DH-003","19:59:59","","","","","","","","","","","","assessment 0","","3469","components/portraits/StimImgFernandoAlves.PNG","-50","","","","","-50","Fernando Alves","B",""
"","image-slider-response-modified","63","650548","0.0-63.0","60125","DH-003","20:0:0","","","","","","","","","","","","assessment 1","","568","components/portraits/StimImgFranklinReinhardt.PNG","-50","","","","","-50","Franklin Reinhardt","B",""
"","image-slider-response-modified","64","651364","0.0-64.0","60125","DH-003","20:0:0","","","","","","","","","","","","assessment 2","","813","components/portraits/StimImgMiguelAlves.PNG","-100","","","","","-100","Miguel Alves","B",""
"","image-slider-response-modified","65","651921","0.0-65.0","60125","DH-003","20:0:1","","","","","","","","","","","","assessment 3","","554","components/portraits/StimImgGraceFraser.PNG","-45","","","","","-45","Grace Fraser","B",""
"","image-slider-response-modified","66","652534","0.0-66.0","60125","DH-003","20:0:2","","","","","","","","","","","","assessment 4","","610","components/portraits/StimImgElenaAlves.PNG","-100","","","","","-100","Elena Alves","B",""
"","image-slider-response-modified","67","653179","0.0-67.0","60125","DH-003","20:0:2","","","","","","","","","","","","assessment 5","","642","components/portraits/StimImgJonathanFraser.PNG","-46","","","","","-46","Jonathan Fraser","B",""
"","image-slider-response-modified","68","653922","0.0-68.0","60125","DH-003","20:0:3","","","","","","","","","","","","assessment 6","","740","components/portraits/StimImgSylviaSteinetz.PNG","-100","","","","","-100","Sylvia Steinetz","B",""
"","image-slider-response-modified","69","654715","0.0-69.0","60125","DH-003","20:0:4","","","","","","","","","","","","assessment 7","","789","components/portraits/StimImgHenryFraser.PNG","-100","","","","","-100","Henry Fraser","B",""
"","html-keyboard-response","70","655718","0.0-70.0","60125","DH-003","20:0:5","","","","","","","","","","","","","","null","[""<p style=\""font-size: 36px; width: 1200px; line-height: 40px;\"">Returning to the video...""]","null","","","","","","","",""
"","browser-check","71","656713","0.0-71.0","60125","DH-003","20:0:6","1470","919","true","chrome","129.0.0","false","Mac OS","true","60.43","true","true","Browser_Check","","","","","","","","","","","",""
"","video-keyboard-response","72","734112","0.0-72.0","60125","DH-003","20:1:23","","","","","","","","","","","","video 4","","null","[""components/stim/StimVid_Undoing1.mp4""]","null","","","","","","","",""
"","image-slider-response-modified","73","737111","0.0-73.0","60125","DH-003","20:1:26","","","","","","","","","","","","assessment 0","","2996","components/portraits/StimImgFernandoAlves.PNG","-50","","","","","-50","Fernando Alves","B",""
"","image-slider-response-modified","74","737601","0.0-74.0","60125","DH-003","20:1:27","","","","","","","","","","","","assessment 1","","487","components/portraits/StimImgFranklinReinhardt.PNG","-50","","","","","-50","Franklin Reinhardt","B",""
"","image-slider-response-modified","75","737977","0.0-75.0","60125","DH-003","20:1:27","","","","","","","","","","","","assessment 2","","372","components/portraits/StimImgMiguelAlves.PNG","-100","","","","","-100","Miguel Alves","B",""
"","image-slider-response-modified","76","738304","0.0-76.0","60125","DH-003","20:1:27","","","","","","","","","","","","assessment 3","","324","components/portraits/StimImgGraceFraser.PNG","-45","","","","","-45","Grace Fraser","B",""
"","image-slider-response-modified","77","738687","0.0-77.0","60125","DH-003","20:1:28","","","","","","","","","","","","assessment 4","","380","components/portraits/StimImgElenaAlves.PNG","-100","","","","","-100","Elena Alves","B",""
"","image-slider-response-modified","78","753522","0.0-78.0","60125","DH-003","20:1:43","","","","","","","","","","","","assessment 5","","14833","components/portraits/StimImgJonathanFraser.PNG","-35","","","","","-46","Jonathan Fraser","B",""
"","image-slider-response-modified","79","754266","0.0-79.0","60125","DH-003","20:1:43","","","","","","","","","","","","assessment 6","","740","components/portraits/StimImgSylviaSteinetz.PNG","-100","","","","","-100","Sylvia Steinetz","B",""
"","image-slider-response-modified","80","755001","0.0-80.0","60125","DH-003","20:1:44","","","","","","","","","","","","assessment 7","","731","components/portraits/StimImgHenryFraser.PNG","-100","","","","","-100","Henry Fraser","B",""
"","html-keyboard-response","81","756004","0.0-81.0","60125","DH-003","20:1:45","","","","","","","","","","","","","","null","[""<p style=\""font-size: 36px; width: 1200px; line-height: 40px;\"">Returning to the video...""]","null","","","","","","","",""
"","browser-check","82","757011","0.0-82.0","60125","DH-003","20:1:46","1470","919","true","chrome","129.0.0","false","Mac OS","true","59.65","true","true","Browser_Check","","","","","","","","","","","",""
"","video-keyboard-response","83","854284","0.0-83.0","60125","DH-003","20:3:23","","","","","","","","","","","","video 5","","null","[""components/stim/StimVid_Undoing1.mp4""]","null","","","","","","","",""
"","image-slider-response-modified","84","859178","0.0-84.0","60125","DH-003","20:3:28","","","","","","","","","","","","assessment 0","","4891","components/portraits/StimImgFernandoAlves.PNG","-50","","","","","-50","Fernando Alves","B",""
"","image-slider-response-modified","85","859824","0.0-85.0","60125","DH-003","20:3:29","","","","","","","","","","","","assessment 1","","642","components/portraits/StimImgFranklinReinhardt.PNG","-50","","","","","-50","Franklin Reinhardt","B",""
"","image-slider-response-modified","86","860420","0.0-86.0","60125","DH-003","20:3:29","","","","","","","","","","","","assessment 2","","593","components/portraits/StimImgMiguelAlves.PNG","-100","","","","","-100","Miguel Alves","B",""
"","image-slider-response-modified","87","862037","0.0-87.0","60125","DH-003","20:3:31","","","","","","","","","","","","assessment 3","","1614","components/portraits/StimImgGraceFraser.PNG","-45","","","","","-45","Grace Fraser","B",""
"","image-slider-response-modified","88","862437","0.0-88.0","60125","DH-003","20:3:31","","","","","","","","","","","","assessment 4","","396","components/portraits/StimImgElenaAlves.PNG","-100","","","","","-100","Elena Alves","B",""
"","image-slider-response-modified","89","863034","0.0-89.0","60125","DH-003","20:3:32","","","","","","","","","","","","assessment 5","","595","components/portraits/StimImgJonathanFraser.PNG","-35","","","","","-35","Jonathan Fraser","B",""
"","image-slider-response-modified","90","863647","0.0-90.0","60125","DH-003","20:3:33","","","","","","","","","","","","assessment 6","","608","components/portraits/StimImgSylviaSteinetz.PNG","-100","","","","","-100","Sylvia Steinetz","B",""
"","image-slider-response-modified","91","864251","0.0-91.0","60125","DH-003","20:3:33","","","","","","","","","","","","assessment 7","","601","components/portraits/StimImgHenryFraser.PNG","-100","","","","","-100","Henry Fraser","B",""
"","html-keyboard-response","92","865253","0.0-92.0","60125","DH-003","20:3:34","","","","","","","","","","","","","","null","[""<p style=\""font-size: 36px; width: 1200px; line-height: 40px;\"">Returning to the video...""]","null","","","","","","","",""
"","browser-check","93","866244","0.0-93.0","60125","DH-003","20:3:35","1470","919","true","chrome","129.0.0","false","Mac OS","true","60.67","true","true","Browser_Check","","","","","","","","","","","",""
"","video-keyboard-response","94","935627","0.0-94.0","60125","DH-003","20:4:45","","","","","","","","","","","","video 6","","null","[""components/stim/StimVid_Undoing1.mp4""]","null","","","","","","","",""
"","image-slider-response-modified","95","938430","0.0-95.0","60125","DH-003","20:4:47","","","","","","","","","","","","assessment 0","","2800","components/portraits/StimImgFernandoAlves.PNG","-50","","","","","-50","Fernando Alves","B",""
"","image-slider-response-modified","96","939215","0.0-96.0","60125","DH-003","20:4:48","","","","","","","","","","","","assessment 1","","781","components/portraits/StimImgFranklinReinhardt.PNG","-50","","","","","-50","Franklin Reinhardt","B",""
"","image-slider-response-modified","97","939941","0.0-97.0","60125","DH-003","20:4:49","","","","","","","","","","","","assessment 2","","723","components/portraits/StimImgMiguelAlves.PNG","-100","","","","","-100","Miguel Alves","B",""
"","image-slider-response-modified","98","943903","0.0-98.0","60125","DH-003","20:4:53","","","","","","","","","","","","assessment 3","","3959","components/portraits/StimImgGraceFraser.PNG","-45","","","","","-45","Grace Fraser","B",""
"","image-slider-response-modified","99","945202","0.0-99.0","60125","DH-003","20:4:54","","","","","","","","","","","","assessment 4","","1295","components/portraits/StimImgElenaAlves.PNG","-100","","","","","-100","Elena Alves","B",""
"","image-slider-response-modified","100","958324","0.0-100.0","60125","DH-003","20:5:7","","","","","","","","","","","","assessment 5","","13118","components/portraits/StimImgJonathanFraser.PNG","-30","","","","","-35","Jonathan Fraser","B",""
"","image-slider-response-modified","101","959272","0.0-101.0","60125","DH-003","20:5:8","","","","","","","","","","","","assessment 6","","945","components/portraits/StimImgSylviaSteinetz.PNG","-100","","","","","-100","Sylvia Steinetz","B",""
"","image-slider-response-modified","102","959942","0.0-102.0","60125","DH-003","20:5:9","","","","","","","","","","","","assessment 7","","667","components/portraits/StimImgHenryFraser.PNG","-100","","","","","-100","Henry Fraser","B",""
"","html-keyboard-response","103","960945","0.0-103.0","60125","DH-003","20:5:10","","","","","","","","","","","","","","null","[""<p style=\""font-size: 36px; width: 1200px; line-height: 40px;\"">Returning to the video...""]","null","","","","","","","",""
"","browser-check","104","961943","0.0-104.0","60125","DH-003","20:5:11","1470","919","true","chrome","129.0.0","false","Mac OS","true","60.26","true","true","Browser_Check","","","","","","","","","","","",""
"","video-keyboard-response","105","1085250","0.0-105.0","60125","DH-003","20:7:14","","","","","","","","","","","","video 7","","null","[""components/stim/StimVid_Undoing1.mp4""]","null","","","","","","","",""
"","image-slider-response-modified","106","1087520","0.0-106.0","60125","DH-003","20:7:17","","","","","","","","","","","","assessment 0","","2267","components/portraits/StimImgFernandoAlves.PNG","-50","","","","","-50","Fernando Alves","B",""
"","image-slider-response-modified","107","1093197","0.0-107.0","60125","DH-003","20:7:22","","","","","","","","","","","","assessment 1","","5674","components/portraits/StimImgFranklinReinhardt.PNG","-45","","","","","-50","Franklin Reinhardt","B",""
"","image-slider-response-modified","108","1095092","0.0-108.0","60125","DH-003","20:7:24","","","","","","","","","","","","assessment 2","","1892","components/portraits/StimImgMiguelAlves.PNG","-100","","","","","-100","Miguel Alves","B",""
"","image-slider-response-modified","109","1104125","0.0-109.0","60125","DH-003","20:7:33","","","","","","","","","","","","assessment 3","","9030","components/portraits/StimImgGraceFraser.PNG","-31","","","","","-45","Grace Fraser","B",""
"","image-slider-response-modified","110","1105236","0.0-110.0","60125","DH-003","20:7:34","","","","","","","","","","","","assessment 4","","1107","components/portraits/StimImgElenaAlves.PNG","-100","","","","","-100","Elena Alves","B",""
"","image-slider-response-modified","111","1116141","0.0-111.0","60125","DH-003","20:7:45","","","","","","","","","","","","assessment 5","","10902","components/portraits/StimImgJonathanFraser.PNG","-34","","","","","-30","Jonathan Fraser","B",""
"","image-slider-response-modified","112","1117382","0.0-112.0","60125","DH-003","20:7:46","","","","","","","","","","","","assessment 6","","1238","components/portraits/StimImgSylviaSteinetz.PNG","-100","","","","","-100","Sylvia Steinetz","B",""
"","image-slider-response-modified","113","1117783","0.0-113.0","60125","DH-003","20:7:47","","","","","","","","","","","","assessment 7","","398","components/portraits/StimImgHenryFraser.PNG","-100","","","","","-100","Henry Fraser","B",""
"","html-keyboard-response","114","1118786","0.0-114.0","60125","DH-003","20:7:48","","","","","","","","","","","","","","null","[""<p style=\""font-size: 36px; width: 1200px; line-height: 40px;\"">Returning to the video...""]","null","","","","","","","",""
"","browser-check","115","1119792","0.0-115.0","60125","DH-003","20:7:49","1470","919","true","chrome","129.0.0","false","Mac OS","true","59.76","true","true","Browser_Check","","","","","","","","","","","",""
"","video-keyboard-response","116","1213061","0.0-116.0","60125","DH-003","20:9:22","","","","","","","","","","","","video 8","","null","[""components/stim/StimVid_Undoing1.mp4""]","null","","","","","","","",""
"","image-slider-response-modified","117","1216769","0.0-117.0","60125","DH-003","20:9:26","","","","","","","","","","","","assessment 0","","3705","components/portraits/StimImgFernandoAlves.PNG","-50","","","","","-50","Fernando Alves","B",""
"","image-slider-response-modified","118","1226784","0.0-118.0","60125","DH-003","20:9:36","","","","","","","","","","","","assessment 1","","10012","components/portraits/StimImgFranklinReinhardt.PNG","-50","","","","","-45","Franklin Reinhardt","B",""
"","image-slider-response-modified","119","1227527","0.0-119.0","60125","DH-003","20:9:37","","","","","","","","","","","","assessment 2","","740","components/portraits/StimImgMiguelAlves.PNG","-100","","","","","-100","Miguel Alves","B",""
"","image-slider-response-modified","120","1229071","0.0-120.0","60125","DH-003","20:9:38","","","","","","","","","","","","assessment 3","","1541","components/portraits/StimImgGraceFraser.PNG","-31","","","","","-31","Grace Fraser","B",""
"","image-slider-response-modified","121","1231031","0.0-121.0","60125","DH-003","20:9:40","","","","","","","","","","","","assessment 4","","1957","components/portraits/StimImgElenaAlves.PNG","-100","","","","","-100","Elena Alves","B",""
"","image-slider-response-modified","122","1236145","0.0-122.0","60125","DH-003","20:9:45","","","","","","","","","","","","assessment 5","","5111","components/portraits/StimImgJonathanFraser.PNG","-40","","","","","-34","Jonathan Fraser","B",""
"","image-slider-response-modified","123","1236879","0.0-123.0","60125","DH-003","20:9:46","","","","","","","","","","","","assessment 6","","731","components/portraits/StimImgSylviaSteinetz.PNG","-100","","","","","-100","Sylvia Steinetz","B",""
"","image-slider-response-modified","124","1237370","0.0-124.0","60125","DH-003","20:9:46","","","","","","","","","","","","assessment 7","","489","components/portraits/StimImgHenryFraser.PNG","-100","","","","","-100","Henry Fraser","B",""
"","html-keyboard-response","125","1238372","0.0-125.0","60125","DH-003","20:9:47","","","","","","","","","","","","","","null","[""<p style=\""font-size: 36px; width: 1200px; line-height: 40px;\"">Returning to the video...""]","null","","","","","","","",""
"","browser-check","126","1239357","0.0-126.0","60125","DH-003","20:9:48","1470","919","true","chrome","129.0.0","false","Mac OS","true","61.03","true","true","Browser_Check","","","","","","","","","","","",""
"","video-keyboard-response","127","1332638","0.0-127.0","60125","DH-003","20:11:22","","","","","","","","","","","","video 9","","null","[""components/stim/StimVid_Undoing1.mp4""]","null","","","","","","","",""
"","image-slider-response-modified","128","1345606","0.0-128.0","60125","DH-003","20:11:35","","","","","","","","","","","","assessment 0","","12964","components/portraits/StimImgFernandoAlves.PNG","-50","","","","","-50","Fernando Alves","B",""
"","image-slider-response-modified","129","1346569","0.0-129.0","60125","DH-003","20:11:36","","","","","","","","","","","","assessment 1","","960","components/portraits/StimImgFranklinReinhardt.PNG","-50","","","","","-50","Franklin Reinhardt","B",""
"","image-slider-response-modified","130","1347133","0.0-130.0","60125","DH-003","20:11:36","","","","","","","","","","","","assessment 2","","553","components/portraits/StimImgMiguelAlves.PNG","-100","","","","","-100","Miguel Alves","B",""
"","image-slider-response-modified","131","1347558","0.0-131.0","60125","DH-003","20:11:37","","","","","","","","","","","","assessment 3","","421","components/portraits/StimImgGraceFraser.PNG","-31","","","","","-31","Grace Fraser","B",""
"","image-slider-response-modified","132","1347957","0.0-132.0","60125","DH-003","20:11:37","","","","","","","","","","","","assessment 4","","396","components/portraits/StimImgElenaAlves.PNG","-100","","","","","-100","Elena Alves","B",""
"","image-slider-response-modified","133","1348407","0.0-133.0","60125","DH-003","20:11:37","","","","","","","","","","","","assessment 5","","447","components/portraits/StimImgJonathanFraser.PNG","-40","","","","","-40","Jonathan Fraser","B",""
"","image-slider-response-modified","134","1348750","0.0-134.0","60125","DH-003","20:11:38","","","","","","","","","","","","assessment 6","","342","components/portraits/StimImgSylviaSteinetz.PNG","-100","","","","","-100","Sylvia Steinetz","B",""
"","image-slider-response-modified","135","1349576","0.0-135.0","60125","DH-003","20:11:39","","","","","","","","","","","","assessment 7","","822","components/portraits/StimImgHenryFraser.PNG","-100","","","","","-100","Henry Fraser","B",""
"","html-keyboard-response","136","1350579","0.0-136.0","60125","DH-003","20:11:40","","","","","","","","","","","","","","null","[""<p style=\""font-size: 36px; width: 1200px; line-height: 40px;\"">Returning to the video...""]","null","","","","","","","",""
"","browser-check","137","1351589","0.0-137.0","60125","DH-003","20:11:41","1470","919","true","chrome","129.0.0","false","Mac OS","true","59.52","true","true","Browser_Check","","","","","","","","","","","",""
"","video-keyboard-response","138","1432918","0.0-138.0","60125","DH-003","20:13:2","","","","","","","","","","","","video 10","","null","[""components/stim/StimVid_Undoing1.mp4""]","null","","","","","","","",""
"","image-slider-response-modified","139","1435096","0.0-139.0","60125","DH-003","20:13:4","","","","","","","","","","","","assessment 0","","2175","components/portraits/StimImgFernandoAlves.PNG","-50","","","","","-50","Fernando Alves","B",""
"","image-slider-response-modified","140","1436370","0.0-140.0","60125","DH-003","20:13:5","","","","","","","","","","","","assessment 1","","1271","components/portraits/StimImgFranklinReinhardt.PNG","-50","","","","","-50","Franklin Reinhardt","B",""
"","image-slider-response-modified","141","1436958","0.0-141.0","60125","DH-003","20:13:6","","","","","","","","","","","","assessment 2","","584","components/portraits/StimImgMiguelAlves.PNG","-100","","","","","-100","Miguel Alves","B",""
"","image-slider-response-modified","142","1437448","0.0-142.0","60125","DH-003","20:13:6","","","","","","","","","","","","assessment 3","","486","components/portraits/StimImgGraceFraser.PNG","-31","","","","","-31","Grace Fraser","B",""
"","image-slider-response-modified","143","1437922","0.0-143.0","60125","DH-003","20:13:7","","","","","","","","","","","","assessment 4","","471","components/portraits/StimImgElenaAlves.PNG","-100","","","","","-100","Elena Alves","B",""
"","image-slider-response-modified","144","1438362","0.0-144.0","60125","DH-003","20:13:7","","","","","","","","","","","","assessment 5","","437","components/portraits/StimImgJonathanFraser.PNG","-40","","","","","-40","Jonathan Fraser","B",""
"","image-slider-response-modified","145","1439260","0.0-145.0","60125","DH-003","20:13:8","","","","","","","","","","","","assessment 6","","896","components/portraits/StimImgSylviaSteinetz.PNG","-100","","","","","-100","Sylvia Steinetz","B",""
"","image-slider-response-modified","146","1439718","0.0-146.0","60125","DH-003","20:13:9","","","","","","","","","","","","assessment 7","","456","components/portraits/StimImgHenryFraser.PNG","-100","","","","","-100","Henry Fraser","B",""
"","html-keyboard-response","147","1440721","0.0-147.0","60125","DH-003","20:13:10","","","","","","","","","","","","","","null","[""<p style=\""font-size: 36px; width: 1200px; line-height: 40px;\"">Returning to the video...""]","null","","","","","","","",""
"","browser-check","148","1441721","0.0-148.0","60125","DH-003","20:13:11","1470","919","true","chrome","129.0.0","false","Mac OS","true","60.11","true","true","Browser_Check","","","","","","","","","","","",""
"","video-keyboard-response","149","1527088","0.0-149.0","60125","DH-003","20:14:36","","","","","","","","","","","","video 11","","null","[""components/stim/StimVid_Undoing1.mp4""]","null","","","","","","","",""
"","image-slider-response-modified","150","1528628","0.0-150.0","60125","DH-003","20:14:38","","","","","","","","","","","","assessment 0","","1536","components/portraits/StimImgFernandoAlves.PNG","-50","","","","","-50","Fernando Alves","B",""
"","image-slider-response-modified","151","1528881","0.0-151.0","60125","DH-003","20:14:38","","","","","","","","","","","","assessment 1","","250","components/portraits/StimImgFranklinReinhardt.PNG","-50","","","","","-50","Franklin Reinhardt","B",""
"","image-slider-response-modified","152","1529142","0.0-152.0","60125","DH-003","20:14:38","","","","","","","","","","","","assessment 2","","259","components/portraits/StimImgMiguelAlves.PNG","-100","","","","","-100","Miguel Alves","B",""
"","image-slider-response-modified","153","1529371","0.0-153.0","60125","DH-003","20:14:38","","","","","","","","","","","","assessment 3","","226","components/portraits/StimImgGraceFraser.PNG","-31","","","","","-31","Grace Fraser","B",""
"","image-slider-response-modified","154","1529567","0.0-154.0","60125","DH-003","20:14:39","","","","","","","","","","","","assessment 4","","193","components/portraits/StimImgElenaAlves.PNG","-100","","","","","-100","Elena Alves","B",""
"","image-slider-response-modified","155","1529739","0.0-155.0","60125","DH-003","20:14:39","","","","","","","","","","","","assessment 5","","169","components/portraits/StimImgJonathanFraser.PNG","-40","","","","","-40","Jonathan Fraser","B",""
"","image-slider-response-modified","156","1529894","0.0-156.0","60125","DH-003","20:14:39","","","","","","","","","","","","assessment 6","","151","components/portraits/StimImgSylviaSteinetz.PNG","-100","","","","","-100","Sylvia Steinetz","B",""
"","image-slider-response-modified","157","1530213","0.0-157.0","60125","DH-003","20:14:39","","","","","","","","","","","","assessment 7","","315","components/portraits/StimImgHenryFraser.PNG","-100","","","","","-100","Henry Fraser","B",""
"","html-keyboard-response","158","1531215","0.0-158.0","60125","DH-003","20:14:40","","","","","","","","","","","","","","null","[""<p style=\""font-size: 36px; width: 1200px; line-height: 40px;\"">Returning to the video...""]","null","","","","","","","",""
"","browser-check","159","1532219","0.0-159.0","60125","DH-003","20:14:41","1470","919","true","chrome","129.0.0","false","Mac OS","true","59.87","true","true","Browser_Check","","","","","","","","","","","",""
"","video-keyboard-response","160","1605603","0.0-160.0","60125","DH-003","20:15:55","","","","","","","","","","","","video 12","","null","[""components/stim/StimVid_Undoing1.mp4""]","null","","","","","","","",""
"","image-slider-response-modified","161","1622656","0.0-161.0","60125","DH-003","20:16:12","","","","","","","","","","","","assessment 0","","17050","components/portraits/StimImgFernandoAlves.PNG","-50","","","","","-50","Fernando Alves","B",""
"","image-slider-response-modified","162","1622877","0.0-162.0","60125","DH-003","20:16:12","","","","","","","","","","","","assessment 1","","217","components/portraits/StimImgFranklinReinhardt.PNG","-50","","","","","-50","Franklin Reinhardt","B",""
"","image-slider-response-modified","163","1623056","0.0-163.0","60125","DH-003","20:16:12","","","","","","","","","","","","assessment 2","","177","components/portraits/StimImgMiguelAlves.PNG","-100","","","","","-100","Miguel Alves","B",""
"","image-slider-response-modified","164","1623236","0.0-164.0","60125","DH-003","20:16:12","","","","","","","","","","","","assessment 3","","176","components/portraits/StimImgGraceFraser.PNG","-31","","","","","-31","Grace Fraser","B",""
"","image-slider-response-modified","165","1623424","0.0-165.0","60125","DH-003","20:16:12","","","","","","","","","","","","assessment 4","","185","components/portraits/StimImgElenaAlves.PNG","-100","","","","","-100","Elena Alves","B",""
"","image-slider-response-modified","166","1623604","0.0-166.0","60125","DH-003","20:16:13","","","","","","","","","","","","assessment 5","","176","components/portraits/StimImgJonathanFraser.PNG","-40","","","","","-40","Jonathan Fraser","B",""
"","image-slider-response-modified","167","1623759","0.0-167.0","60125","DH-003","20:16:13","","","","","","","","","","","","assessment 6","","152","components/portraits/StimImgSylviaSteinetz.PNG","-100","","","","","-100","Sylvia Steinetz","B",""
"","image-slider-response-modified","168","1623938","0.0-168.0","60125","DH-003","20:16:13","","","","","","","","","","","","assessment 7","","176","components/portraits/StimImgHenryFraser.PNG","-100","","","","","-100","Henry Fraser","B",""
"","html-keyboard-response","169","1624941","0.0-169.0","60125","DH-003","20:16:14","","","","","","","","","","","","","","null","[""<p style=\""font-size: 36px; width: 1200px; line-height: 40px;\"">Returning to the video...""]","null","","","","","","","",""
"","browser-check","170","1625935","0.0-170.0","60125","DH-003","20:16:15","1470","919","true","chrome","129.0.0","false","Mac OS","true","60.47","true","true","Browser_Check","","","","","","","","","","","",""
"","video-keyboard-response","171","1693180","0.0-171.0","60125","DH-003","20:17:22","","","","","","","","","","","","video 13","","null","[""components/stim/StimVid_Undoing1.mp4""]","null","","","","","","","",""
"","image-slider-response-modified","172","1694655","0.0-172.0","60125","DH-003","20:17:24","","","","","","","","","","","","assessment 0","","1472","components/portraits/StimImgFernandoAlves.PNG","-50","","","","","-50","Fernando Alves","B",""
"","image-slider-response-modified","173","1694925","0.0-173.0","60125","DH-003","20:17:24","","","","","","","","","","","","assessment 1","","267","components/portraits/StimImgFranklinReinhardt.PNG","-50","","","","","-50","Franklin Reinhardt","B",""
"","image-slider-response-modified","174","1695179","0.0-174.0","60125","DH-003","20:17:24","","","","","","","","","","","","assessment 2","","250","components/portraits/StimImgMiguelAlves.PNG","-100","","","","","-100","Miguel Alves","B",""
"","image-slider-response-modified","175","1695456","0.0-175.0","60125","DH-003","20:17:24","","","","","","","","","","","","assessment 3","","274","components/portraits/StimImgGraceFraser.PNG","-31","","","","","-31","Grace Fraser","B",""
"","image-slider-response-modified","176","1695693","0.0-176.0","60125","DH-003","20:17:25","","","","","","","","","","","","assessment 4","","234","components/portraits/StimImgElenaAlves.PNG","-100","","","","","-100","Elena Alves","B",""
"","image-slider-response-modified","177","1695881","0.0-177.0","60125","DH-003","20:17:25","","","","","","","","","","","","assessment 5","","178","components/portraits/StimImgJonathanFraser.PNG","-40","","","","","-40","Jonathan Fraser","B",""
"","image-slider-response-modified","178","1696118","0.0-178.0","60125","DH-003","20:17:25","","","","","","","","","","","","assessment 6","","233","components/portraits/StimImgSylviaSteinetz.PNG","-100","","","","","-100","Sylvia Steinetz","B",""
"","image-slider-response-modified","179","1696396","0.0-179.0","60125","DH-003","20:17:25","","","","","","","","","","","","assessment 7","","275","components/portraits/StimImgHenryFraser.PNG","-100","","","","","-100","Henry Fraser","B",""
"","html-keyboard-response","180","1697398","0.0-180.0","60125","DH-003","20:17:26","","","","","","","","","","","","","","null","[""<p style=\""font-size: 36px; width: 1200px; line-height: 40px;\"">Returning to the video...""]","null","","","","","","","",""
"","browser-check","181","1698400","0.0-181.0","60125","DH-003","20:17:27","1470","919","true","chrome","129.0.0","false","Mac OS","true","59.98","true","true","Browser_Check","","","","","","","","","","","",""
"","video-keyboard-response","182","1781600","0.0-182.0","60125","DH-003","20:18:51","","","","","","","","","","","","video 14","","null","[""components/stim/StimVid_Undoing1.mp4""]","null","","","","","","","",""
"","image-slider-response-modified","183","1784219","0.0-183.0","60125","DH-003","20:18:53","","","","","","","","","","","","assessment 0","","2616","components/portraits/StimImgFernandoAlves.PNG","-50","","","","","-50","Fernando Alves","B",""
"","image-slider-response-modified","184","1784497","0.0-184.0","60125","DH-003","20:18:54","","","","","","","","","","","","assessment 1","","276","components/portraits/StimImgFranklinReinhardt.PNG","-50","","","","","-50","Franklin Reinhardt","B",""
"","image-slider-response-modified","185","1784799","0.0-185.0","60125","DH-003","20:18:54","","","","","","","","","","","","assessment 2","","299","components/portraits/StimImgMiguelAlves.PNG","-100","","","","","-100","Miguel Alves","B",""
"","image-slider-response-modified","186","1789382","0.0-186.0","60125","DH-003","20:18:58","","","","","","","","","","","","assessment 3","","4579","components/portraits/StimImgGraceFraser.PNG","-21","","","","","-31","Grace Fraser","B",""
"","image-slider-response-modified","187","1790231","0.0-187.0","60125","DH-003","20:18:59","","","","","","","","","","","","assessment 4","","846","components/portraits/StimImgElenaAlves.PNG","-100","","","","","-100","Elena Alves","B",""
"","image-slider-response-modified","188","1790468","0.0-188.0","60125","DH-003","20:19:0","","","","","","","","","","","","assessment 5","","233","components/portraits/StimImgJonathanFraser.PNG","-40","","","","","-40","Jonathan Fraser","B",""
"","image-slider-response-modified","189","1790705","0.0-189.0","60125","DH-003","20:19:0","","","","","","","","","","","","assessment 6","","233","components/portraits/StimImgSylviaSteinetz.PNG","-100","","","","","-100","Sylvia Steinetz","B",""
"","image-slider-response-modified","190","1790901","0.0-190.0","60125","DH-003","20:19:0","","","","","","","","","","","","assessment 7","","192","components/portraits/StimImgHenryFraser.PNG","-100","","","","","-100","Henry Fraser","B",""
"","html-keyboard-response","191","1791904","0.0-191.0","60125","DH-003","20:19:1","","","","","","","","","","","","","","null","[""<p style=\""font-size: 36px; width: 1200px; line-height: 40px;\"">Returning to the video...""]","null","","","","","","","",""
"","browser-check","192","1792899","0.0-192.0","60125","DH-003","20:19:2","1470","919","true","chrome","129.0.0","false","Mac OS","true","60.39","true","true","Browser_Check","","","","","","","","","","","",""
"","video-keyboard-response","193","1870240","0.0-193.0","60125","DH-003","20:20:19","","","","","","","","","","","","video 15","","null","[""components/stim/StimVid_Undoing1.mp4""]","null","","","","","","","",""
"","image-slider-response-modified","194","1871618","0.0-194.0","60125","DH-003","20:20:21","","","","","","","","","","","","assessment 0","","1374","components/portraits/StimImgFernandoAlves.PNG","-50","","","","","-50","Fernando Alves","B",""
"","image-slider-response-modified","195","1872042","0.0-195.0","60125","DH-003","20:20:21","","","","","","","","","","","","assessment 1","","420","components/portraits/StimImgFranklinReinhardt.PNG","-50","","","","","-50","Franklin Reinhardt","B",""
"","image-slider-response-modified","196","1872638","0.0-196.0","60125","DH-003","20:20:22","","","","","","","","","","","","assessment 2","","593","components/portraits/StimImgMiguelAlves.PNG","-100","","","","","-100","Miguel Alves","B",""
"","image-slider-response-modified","197","1880691","0.0-197.0","60125","DH-003","20:20:30","","","","","","","","","","","","assessment 3","","8050","components/portraits/StimImgGraceFraser.PNG","-20","","","","","-21","Grace Fraser","B",""
"","image-slider-response-modified","198","1881533","0.0-198.0","60125","DH-003","20:20:31","","","","","","","","","","","","assessment 4","","838","components/portraits/StimImgElenaAlves.PNG","-100","","","","","-100","Elena Alves","B",""
"","image-slider-response-modified","199","1881810","0.0-199.0","60125","DH-003","20:20:31","","","","","","","","","","","","assessment 5","","275","components/portraits/StimImgJonathanFraser.PNG","-40","","","","","-40","Jonathan Fraser","B",""
"","image-slider-response-modified","200","1882063","0.0-200.0","60125","DH-003","20:20:31","","","","","","","","","","","","assessment 6","","250","components/portraits/StimImgSylviaSteinetz.PNG","-100","","","","","-100","Sylvia Steinetz","B",""
"","image-slider-response-modified","201","1882268","0.0-201.0","60125","DH-003","20:20:31","","","","","","","","","","","","assessment 7","","203","components/portraits/StimImgHenryFraser.PNG","-100","","","","","-100","Henry Fraser","B",""
"","html-keyboard-response","202","1883271","0.0-202.0","60125","DH-003","20:20:32","","","","","","","","","","","","","","null","[""<p style=\""font-size: 36px; width: 1200px; line-height: 40px;\"">Returning to the video...""]","null","","","","","","","",""
"","browser-check","203","1884281","0.0-203.0","60125","DH-003","20:20:33","1470","919","true","chrome","129.0.0","false","Mac OS","true","59.48","true","true","Browser_Check","","","","","","","","","","","",""
"","video-keyboard-response","204","1953661","0.0-204.0","60125","DH-003","20:21:43","","","","","","","","","","","","video 16","","null","[""components/stim/StimVid_Undoing1.mp4""]","null","","","","","","","",""
"","image-slider-response-modified","205","1955017","0.0-205.0","60125","DH-003","20:21:44","","","","","","","","","","","","assessment 0","","1353","components/portraits/StimImgFernandoAlves.PNG","-50","","","","","-50","Fernando Alves","B",""
"","image-slider-response-modified","206","1955304","0.0-206.0","60125","DH-003","20:21:44","","","","","","","","","","","","assessment 1","","283","components/portraits/StimImgFranklinReinhardt.PNG","-50","","","","","-50","Franklin Reinhardt","B",""
"","image-slider-response-modified","207","1955580","0.0-207.0","60125","DH-003","20:21:45","","","","","","","","","","","","assessment 2","","273","components/portraits/StimImgMiguelAlves.PNG","-100","","","","","-100","Miguel Alves","B",""
"","image-slider-response-modified","208","1955842","0.0-208.0","60125","DH-003","20:21:45","","","","","","","","","","","","assessment 3","","260","components/portraits/StimImgGraceFraser.PNG","-20","","","","","-20","Grace Fraser","B",""
"","image-slider-response-modified","209","1956095","0.0-209.0","60125","DH-003","20:21:45","","","","","","","","","","","","assessment 4","","249","components/portraits/StimImgElenaAlves.PNG","-100","","","","","-100","Elena Alves","B",""
"","image-slider-response-modified","210","1957615","0.0-210.0","60125","DH-003","20:21:47","","","","","","","","","","","","assessment 5","","1516","components/portraits/StimImgJonathanFraser.PNG","-40","","","","","-40","Jonathan Fraser","B",""
"","image-slider-response-modified","211","1957892","0.0-211.0","60125","DH-003","20:21:47","","","","","","","","","","","","assessment 6","","274","components/portraits/StimImgSylviaSteinetz.PNG","-100","","","","","-100","Sylvia Steinetz","B",""
"","image-slider-response-modified","212","1958178","0.0-212.0","60125","DH-003","20:21:47","","","","","","","","","","","","assessment 7","","283","components/portraits/StimImgHenryFraser.PNG","-100","","","","","-100","Henry Fraser","B",""
"","html-keyboard-response","213","1959181","0.0-213.0","60125","DH-003","20:21:48","","","","","","","","","","","","","","null","[""<p style=\""font-size: 36px; width: 1200px; line-height: 40px;\"">Returning to the video...""]","null","","","","","","","",""
"","browser-check","214","1960180","0.0-214.0","60125","DH-003","20:21:49","1470","919","true","chrome","129.0.0","false","Mac OS","true","60.2","true","true","Browser_Check","","","","","","","","","","","",""
"","preload","215","1992541","0.0-215.0","60125","DH-003","20:22:22","","","","","","","","","","","","Preload","true","","","","false","[]","[]","[]","","","",""
"","video-keyboard-response","216","2028765","0.0-216.0","60125","DH-003","","","","","","","","","","","","","video 17","","null","[""components/stim/StimVid_Undoing1.mp4""]","null","","","","","","","",""
"","video-keyboard-response","217","2069988","0.0-217.0","60125","DH-003","","","","","","","","","","","","","video 18","","null","[""components/stim/StimVid_Undoing2.mp4""]","null","","","","","","","",""
"","image-slider-response-modified","218","2072108","0.0-218.0","60125","DH-003","20:23:41","","","","","","","","","","","","assessment 0","","2116","components/portraits/StimImgFernandoAlves.PNG","-50","","","","","-50","Fernando Alves","B",""
"","image-slider-response-modified","219","2072908","0.0-219.0","60125","DH-003","20:23:42","","","","","","","","","","","","assessment 1","","797","components/portraits/StimImgFranklinReinhardt.PNG","-50","","","","","-50","Franklin Reinhardt","B",""
"","image-slider-response-modified","220","2073284","0.0-220.0","60125","DH-003","20:23:42","","","","","","","","","","","","assessment 2","","372","components/portraits/StimImgMiguelAlves.PNG","-100","","","","","-100","Miguel Alves","B",""
"","image-slider-response-modified","221","2073659","0.0-221.0","60125","DH-003","20:23:43","","","","","","","","","","","","assessment 3","","372","components/portraits/StimImgGraceFraser.PNG","-20","","","","","-20","Grace Fraser","B",""
"","image-slider-response-modified","222","2073994","0.0-222.0","60125","DH-003","20:23:43","","","","","","","","","","","","assessment 4","","332","components/portraits/StimImgElenaAlves.PNG","-100","","","","","-100","Elena Alves","B",""
"","image-slider-response-modified","223","2074337","0.0-223.0","60125","DH-003","20:23:43","","","","","","","","","","","","assessment 5","","339","components/portraits/StimImgJonathanFraser.PNG","-40","","","","","-40","Jonathan Fraser","B",""
"","image-slider-response-modified","224","2074697","0.0-224.0","60125","DH-003","20:23:44","","","","","","","","","","","","assessment 6","","357","components/portraits/StimImgSylviaSteinetz.PNG","-100","","","","","-100","Sylvia Steinetz","B",""
"","image-slider-response-modified","225","2075024","0.0-225.0","60125","DH-003","20:23:44","","","","","","","","","","","","assessment 7","","323","components/portraits/StimImgHenryFraser.PNG","-100","","","","","-100","Henry Fraser","B",""
"","html-keyboard-response","226","2076026","0.0-226.0","60125","DH-003","20:23:45","","","","","","","","","","","","","","null","[""<p style=\""font-size: 36px; width: 1200px; line-height: 40px;\"">Returning to the video...""]","null","","","","","","","",""
"","browser-check","227","2077028","0.0-227.0","60125","DH-003","20:23:46","1470","919","true","chrome","129.0.0","false","Mac OS","true","60.01","true","true","Browser_Check","","","","","","","","","","","",""
"","video-keyboard-response","228","2152268","0.0-228.0","60125","DH-003","20:25:1","","","","","","","","","","","","video18","","null","[""components/stim/StimVid_Undoing2.mp4""]","null","","","","","","","",""
"","image-slider-response-modified","229","2155111","0.0-229.0","60125","DH-003","20:25:4","","","","","","","","","","","","assessment 0","","2839","components/portraits/StimImgFernandoAlves.PNG","-50","","","","","-50","Fernando Alves","B",""
"","image-slider-response-modified","230","2155527","0.0-230.0","60125","DH-003","20:25:5","","","","","","","","","","","","assessment 1","","413","components/portraits/StimImgFranklinReinhardt.PNG","-50","","","","","-50","Franklin Reinhardt","B",""
"","image-slider-response-modified","231","2155936","0.0-231.0","60125","DH-003","20:25:5","","","","","","","","","","","","assessment 2","","405","components/portraits/StimImgMiguelAlves.PNG","-100","","","","","-100","Miguel Alves","B",""
"","image-slider-response-modified","232","2156491","0.0-232.0","60125","DH-003","20:25:6","","","","","","","","","","","","assessment 3","","552","components/portraits/StimImgGraceFraser.PNG","-20","","","","","-20","Grace Fraser","B",""
"","image-slider-response-modified","233","2156989","0.0-233.0","60125","DH-003","20:25:6","","","","","","","","","","","","assessment 4","","494","components/portraits/StimImgElenaAlves.PNG","-100","","","","","-100","Elena Alves","B",""
"","image-slider-response-modified","234","2157365","0.0-234.0","60125","DH-003","20:25:6","","","","","","","","","","","","assessment 5","","373","components/portraits/StimImgJonathanFraser.PNG","-40","","","","","-40","Jonathan Fraser","B",""
"","image-slider-response-modified","235","2157757","0.0-235.0","60125","DH-003","20:25:7","","","","","","","","","","","","assessment 6","","389","components/portraits/StimImgSylviaSteinetz.PNG","-100","","","","","-100","Sylvia Steinetz","B",""
"","image-slider-response-modified","236","2158116","0.0-236.0","60125","DH-003","20:25:7","","","","","","","","","","","","assessment 7","","356","components/portraits/StimImgHenryFraser.PNG","-100","","","","","-100","Henry Fraser","B",""
"","html-keyboard-response","237","2159119","0.0-237.0","60125","DH-003","20:25:8","","","","","","","","","","","","","","null","[""<p style=\""font-size: 36px; width: 1200px; line-height: 40px;\"">Returning to the video...""]","null","","","","","","","",""
"","browser-check","238","2160127","0.0-238.0","60125","DH-003","20:25:9","1470","919","true","chrome","129.0.0","false","Mac OS","true","59.62","true","true","Browser_Check","","","","","","","","","","","",""
"","video-keyboard-response","239","2293250","0.0-239.0","60125","DH-003","20:27:22","","","","","","","","","","","","video19","","null","[""components/stim/StimVid_Undoing2.mp4""]","null","","","","","","","",""
"","image-slider-response-modified","240","2294930","0.0-240.0","60125","DH-003","20:27:24","","","","","","","","","","","","assessment 0","","1676","components/portraits/StimImgFernandoAlves.PNG","-50","","","","","-50","Fernando Alves","B",""
"","image-slider-response-modified","241","2295207","0.0-241.0","60125","DH-003","20:27:24","","","","","","","","","","","","assessment 1","","274","components/portraits/StimImgFranklinReinhardt.PNG","-50","","","","","-50","Franklin Reinhardt","B",""
"","image-slider-response-modified","242","2296073","0.0-242.0","60125","DH-003","20:27:25","","","","","","","","","","","","assessment 2","","864","components/portraits/StimImgMiguelAlves.PNG","-100","","","","","-100","Miguel Alves","B",""
"","image-slider-response-modified","243","2296078","0.0-243.0","60125","DH-003","20:27:25","","","","","","","","","","","","assessment 3","","4","components/portraits/StimImgGraceFraser.PNG","-20","","","","","-20","Grace Fraser","B",""
"","image-slider-response-modified","244","2304618","0.0-244.0","60125","DH-003","20:27:34","","","","","","","","","","","","assessment 4","","8539","components/portraits/StimImgElenaAlves.PNG","-100","","","","","-100","Elena Alves","B",""
"","image-slider-response-modified","245","2305238","0.0-245.0","60125","DH-003","20:27:34","","","","","","","","","","","","assessment 5","","615","components/portraits/StimImgJonathanFraser.PNG","-40","","","","","-40","Jonathan Fraser","B",""
"","image-slider-response-modified","246","2305712","0.0-246.0","60125","DH-003","20:27:35","","","","","","","","","","","","assessment 6","","470","components/portraits/StimImgSylviaSteinetz.PNG","-100","","","","","-100","Sylvia Steinetz","B",""
"","image-slider-response-modified","247","2306177","0.0-247.0","60125","DH-003","20:27:35","","","","","","","","","","","","assessment 7","","462","components/portraits/StimImgHenryFraser.PNG","-100","","","","","-100","Henry Fraser","B",""
"","html-keyboard-response","248","2307180","0.0-248.0","60125","DH-003","20:27:36","","","","","","","","","","","","","","null","[""<p style=\""font-size: 36px; width: 1200px; line-height: 40px;\"">Returning to the video...""]","null","","","","","","","",""
"","browser-check","249","2308175","0.0-249.0","60125","DH-003","20:27:37","1470","919","true","chrome","129.0.0","false","Mac OS","true","60.38","true","true","Browser_Check","","","","","","","","","","","",""
"","video-keyboard-response","250","2379406","0.0-250.0","60125","DH-003","20:28:48","","","","","","","","","","","","video20","","null","[""components/stim/StimVid_Undoing2.mp4""]","null","","","","","","","",""
"","image-slider-response-modified","251","2381707","0.0-251.0","60125","DH-003","20:28:51","","","","","","","","","","","","assessment 0","","2298","components/portraits/StimImgFernandoAlves.PNG","-50","","","","","-50","Fernando Alves","B",""
"","image-slider-response-modified","252","2382142","0.0-252.0","60125","DH-003","20:28:51","","","","","","","","","","","","assessment 1","","432","components/portraits/StimImgFranklinReinhardt.PNG","-50","","","","","-50","Franklin Reinhardt","B",""
"","image-slider-response-modified","253","2382787","0.0-253.0","60125","DH-003","20:28:52","","","","","","","","","","","","assessment 2","","642","components/portraits/StimImgMiguelAlves.PNG","-100","","","","","-100","Miguel Alves","B",""
"","image-slider-response-modified","254","2385066","0.0-254.0","60125","DH-003","20:28:54","","","","","","","","","","","","assessment 3","","2275","components/portraits/StimImgGraceFraser.PNG","-20","","","","","-20","Grace Fraser","B",""
"","image-slider-response-modified","255","2385752","0.0-255.0","60125","DH-003","20:28:55","","","","","","","","","","","","assessment 4","","683","components/portraits/StimImgElenaAlves.PNG","-100","","","","","-100","Elena Alves","B",""
"","image-slider-response-modified","256","2387313","0.0-256.0","60125","DH-003","20:28:56","","","","","","","","","","","","assessment 5","","1557","components/portraits/StimImgJonathanFraser.PNG","-40","","","","","-40","Jonathan Fraser","B",""
"","image-slider-response-modified","257","2402889","0.0-257.0","60125","DH-003","20:29:12","","","","","","","","","","","","assessment 6","","15573","components/portraits/StimImgSylviaSteinetz.PNG","-80","","","","","-100","Sylvia Steinetz","B",""
"","image-slider-response-modified","258","2404449","0.0-258.0","60125","DH-003","20:29:13","","","","","","","","","","","","assessment 7","","1557","components/portraits/StimImgHenryFraser.PNG","-100","","","","","-100","Henry Fraser","B",""
"","html-keyboard-response","259","2405453","0.0-259.0","60125","DH-003","20:29:14","","","","","","","","","","","","","","null","[""<p style=\""font-size: 36px; width: 1200px; line-height: 40px;\"">Returning to the video...""]","null","","","","","","","",""
"","browser-check","260","2406457","0.0-260.0","60125","DH-003","20:29:15","1470","919","true","chrome","129.0.0","false","Mac OS","true","59.85","true","true","Browser_Check","","","","","","","","","","","",""
"","video-keyboard-response","261","2485654","0.0-261.0","60125","DH-003","20:30:35","","","","","","","","","","","","video21","","null","[""components/stim/StimVid_Undoing2.mp4""]","null","","","","","","","",""
"","image-slider-response-modified","262","2487451","0.0-262.0","60125","DH-003","20:30:36","","","","","","","","","","","","assessment 0","","1793","components/portraits/StimImgFernandoAlves.PNG","-50","","","","","-50","Fernando Alves","B",""
"","image-slider-response-modified","263","2487934","0.0-263.0","60125","DH-003","20:30:37","","","","","","","","","","","","assessment 1","","479","components/portraits/StimImgFranklinReinhardt.PNG","-50","","","","","-50","Franklin Reinhardt","B",""
"","image-slider-response-modified","264","2488465","0.0-264.0","60125","DH-003","20:30:37","","","","","","","","","","","","assessment 2","","528","components/portraits/StimImgMiguelAlves.PNG","-100","","","","","-100","Miguel Alves","B",""
"","image-slider-response-modified","265","2488914","0.0-265.0","60125","DH-003","20:30:38","","","","","","","","","","","","assessment 3","","446","components/portraits/StimImgGraceFraser.PNG","-20","","","","","-20","Grace Fraser","B",""
"","image-slider-response-modified","266","2489363","0.0-266.0","60125","DH-003","20:30:38","","","","","","","","","","","","assessment 4","","444","components/portraits/StimImgElenaAlves.PNG","-100","","","","","-100","Elena Alves","B",""
"","image-slider-response-modified","267","2489821","0.0-267.0","60125","DH-003","20:30:39","","","","","","","","","","","","assessment 5","","454","components/portraits/StimImgJonathanFraser.PNG","-40","","","","","-40","Jonathan Fraser","B",""
"","image-slider-response-modified","268","2490237","0.0-268.0","60125","DH-003","20:30:39","","","","","","","","","","","","assessment 6","","413","components/portraits/StimImgSylviaSteinetz.PNG","-80","","","","","-80","Sylvia Steinetz","B",""
"","image-slider-response-modified","269","2490666","0.0-269.0","60125","DH-003","20:30:40","","","","","","","","","","","","assessment 7","","425","components/portraits/StimImgHenryFraser.PNG","-100","","","","","-100","Henry Fraser","B",""
"","html-keyboard-response","270","2491668","0.0-270.0","60125","DH-003","20:30:41","","","","","","","","","","","","","","null","[""<p style=\""font-size: 36px; width: 1200px; line-height: 40px;\"">Returning to the video...""]","null","","","","","","","",""
"","browser-check","271","2492656","0.0-271.0","60125","DH-003","20:30:42","1470","919","true","chrome","129.0.0","false","Mac OS","true","60.84","true","true","Browser_Check","","","","","","","","","","","",""
"","video-keyboard-response","272","2574001","0.0-272.0","60125","DH-003","20:32:3","","","","","","","","","","","","video22","","null","[""components/stim/StimVid_Undoing2.mp4""]","null","","","","","","","",""
"","image-slider-response-modified","273","2583116","0.0-273.0","60125","DH-003","20:32:12","","","","","","","","","","","","assessment 0","","9111","components/portraits/StimImgFernandoAlves.PNG","-50","","","","","-50","Fernando Alves","B",""
"","image-slider-response-modified","274","2583647","0.0-274.0","60125","DH-003","20:32:13","","","","","","","","","","","","assessment 1","","528","components/portraits/StimImgFranklinReinhardt.PNG","-50","","","","","-50","Franklin Reinhardt","B",""
"","image-slider-response-modified","275","2585167","0.0-275.0","60125","DH-003","20:32:14","","","","","","","","","","","","assessment 2","","1516","components/portraits/StimImgMiguelAlves.PNG","-100","","","","","-100","Miguel Alves","B",""
"","image-slider-response-modified","276","2585770","0.0-276.0","60125","DH-003","20:32:15","","","","","","","","","","","","assessment 3","","600","components/portraits/StimImgGraceFraser.PNG","-20","","","","","-20","Grace Fraser","B",""
"","image-slider-response-modified","277","2589033","0.0-277.0","60125","DH-003","20:32:18","","","","","","","","","","","","assessment 4","","3262","components/portraits/StimImgElenaAlves.PNG","-100","","","","","-100","Elena Alves","B",""
"","image-slider-response-modified","278","2589457","0.0-278.0","60125","DH-003","20:32:18","","","","","","","","","","","","assessment 5","","422","components/portraits/StimImgJonathanFraser.PNG","-40","","","","","-40","Jonathan Fraser","B",""
"","image-slider-response-modified","279","2589947","0.0-279.0","60125","DH-003","20:32:19","","","","","","","","","","","","assessment 6","","487","components/portraits/StimImgSylviaSteinetz.PNG","-80","","","","","-80","Sylvia Steinetz","B",""
"","image-slider-response-modified","280","2590470","0.0-280.0","60125","DH-003","20:32:20","","","","","","","","","","","","assessment 7","","520","components/portraits/StimImgHenryFraser.PNG","-100","","","","","-100","Henry Fraser","B",""
"","html-keyboard-response","281","2591473","0.0-281.0","60125","DH-003","20:32:21","","","","","","","","","","","","","","null","[""<p style=\""font-size: 36px; width: 1200px; line-height: 40px;\"">Returning to the video...""]","null","","","","","","","",""
"","browser-check","282","2592474","0.0-282.0","60125","DH-003","20:32:22","1470","919","true","chrome","129.0.0","false","Mac OS","true","60.05","true","true","Browser_Check","","","","","","","","","","","",""
"","video-keyboard-response","283","2679656","0.0-283.0","60125","DH-003","20:33:49","","","","","","","","","","","","video23","","null","[""components/stim/StimVid_Undoing2.mp4""]","null","","","","","","","",""
"","image-slider-response-modified","284","2684452","0.0-284.0","60125","DH-003","20:33:53","","","","","","","","","","","","assessment 0","","4793","components/portraits/StimImgFernandoAlves.PNG","-100","","","","","-50","Fernando Alves","B",""
"","image-slider-response-modified","285","2685302","0.0-285.0","60125","DH-003","20:33:54","","","","","","","","","","","","assessment 1","","847","components/portraits/StimImgFranklinReinhardt.PNG","-50","","","","","-50","Franklin Reinhardt","B",""
"","image-slider-response-modified","286","2686144","0.0-286.0","60125","DH-003","20:33:55","","","","","","","","","","","","assessment 2","","838","components/portraits/StimImgMiguelAlves.PNG","-100","","","","","-100","Miguel Alves","B",""
"","image-slider-response-modified","287","2687442","0.0-287.0","60125","DH-003","20:33:56","","","","","","","","","","","","assessment 3","","1295","components/portraits/StimImgGraceFraser.PNG","-20","","","","","-20","Grace Fraser","B",""
"","image-slider-response-modified","288","2688104","0.0-288.0","60125","DH-003","20:33:57","","","","","","","","","","","","assessment 4","","658","components/portraits/StimImgElenaAlves.PNG","-100","","","","","-100","Elena Alves","B",""
"","image-slider-response-modified","289","2700062","0.0-289.0","60125","DH-003","20:34:9","","","","","","","","","","","","assessment 5","","11955","components/portraits/StimImgJonathanFraser.PNG","-30","","","","","-40","Jonathan Fraser","B",""
"","image-slider-response-modified","290","2700821","0.0-290.0","60125","DH-003","20:34:10","","","","","","","","","","","","assessment 6","","756","components/portraits/StimImgSylviaSteinetz.PNG","-80","","","","","-80","Sylvia Steinetz","B",""
"","image-slider-response-modified","291","2701377","0.0-291.0","60125","DH-003","20:34:10","","","","","","","","","","","","assessment 7","","552","components/portraits/StimImgHenryFraser.PNG","-100","","","","","-100","Henry Fraser","B",""
"","html-keyboard-response","292","2702380","0.0-292.0","60125","DH-003","20:34:11","","","","","","","","","","","","","","null","[""<p style=\""font-size: 36px; width: 1200px; line-height: 40px;\"">Returning to the video...""]","null","","","","","","","",""
"","browser-check","293","2703390","0.0-293.0","60125","DH-003","20:34:12","1470","919","true","chrome","129.0.0","false","Mac OS","true","59.52","true","true","Browser_Check","","","","","","","","","","","",""
"","video-keyboard-response","294","2808623","0.0-294.0","60125","DH-003","20:35:58","","","","","","","","","","","","video24","","null","[""components/stim/StimVid_Undoing2.mp4""]","null","","","","","","","",""
"","image-slider-response-modified","295","2811425","0.0-295.0","60125","DH-003","20:36:0","","","","","","","","","","","","assessment 0","","2798","components/portraits/StimImgFernandoAlves.PNG","-100","","","","","-100","Fernando Alves","B",""
"","image-slider-response-modified","296","2812192","0.0-296.0","60125","DH-003","20:36:1","","","","","","","","","","","","assessment 1","","764","components/portraits/StimImgFranklinReinhardt.PNG","-50","","","","","-50","Franklin Reinhardt","B",""
"","image-slider-response-modified","297","2812846","0.0-297.0","60125","DH-003","20:36:2","","","","","","","","","","","","assessment 2","","650","components/portraits/StimImgMiguelAlves.PNG","-100","","","","","-100","Miguel Alves","B",""
"","image-slider-response-modified","298","2813671","0.0-298.0","60125","DH-003","20:36:3","","","","","","","","","","","","assessment 3","","822","components/portraits/StimImgGraceFraser.PNG","-20","","","","","-20","Grace Fraser","B",""
"","image-slider-response-modified","299","2814733","0.0-299.0","60125","DH-003","20:36:4","","","","","","","","","","","","assessment 4","","1058","components/portraits/StimImgElenaAlves.PNG","-100","","","","","-100","Elena Alves","B",""
"","image-slider-response-modified","300","2819046","0.0-300.0","60125","DH-003","20:36:8","","","","","","","","","","","","assessment 5","","4310","components/portraits/StimImgJonathanFraser.PNG","-22","","","","","-30","Jonathan Fraser","B",""
"","image-slider-response-modified","301","2819830","0.0-301.0","60125","DH-003","20:36:9","","","","","","","","","","","","assessment 6","","780","components/portraits/StimImgSylviaSteinetz.PNG","-80","","","","","-80","Sylvia Steinetz","B",""
"","image-slider-response-modified","302","2820288","0.0-302.0","60125","DH-003","20:36:9","","","","","","","","","","","","assessment 7","","455","components/portraits/StimImgHenryFraser.PNG","-100","","","","","-100","Henry Fraser","B",""
"","html-keyboard-response","303","2821290","0.0-303.0","60125","DH-003","20:36:10","","","","","","","","","","","","","","null","[""<p style=\""font-size: 36px; width: 1200px; line-height: 40px;\"">Returning to the video...""]","null","","","","","","","",""
"","browser-check","304","2822288","0.0-304.0","60125","DH-003","20:36:11","1470","919","true","chrome","129.0.0","false","Mac OS","true","60.16","true","true","Browser_Check","","","","","","","","","","","",""
"","video-keyboard-response","305","2891670","0.0-305.0","60125","DH-003","20:37:21","","","","","","","","","","","","video25","","null","[""components/stim/StimVid_Undoing2.mp4""]","null","","","","","","","",""
"","image-slider-response-modified","306","2895177","0.0-306.0","60125","DH-003","20:37:24","","","","","","","","","","","","assessment 0","","3504","components/portraits/StimImgFernandoAlves.PNG","-100","","","","","-100","Fernando Alves","B",""
"","image-slider-response-modified","307","2895684","0.0-307.0","60125","DH-003","20:37:25","","","","","","","","","","","","assessment 1","","503","components/portraits/StimImgFranklinReinhardt.PNG","-50","","","","","-50","Franklin Reinhardt","B",""
"","image-slider-response-modified","308","2896035","0.0-308.0","60125","DH-003","20:37:25","","","","","","","","","","","","assessment 2","","348","components/portraits/StimImgMiguelAlves.PNG","-100","","","","","-100","Miguel Alves","B",""
"","image-slider-response-modified","309","2896346","0.0-309.0","60125","DH-003","20:37:25","","","","","","","","","","","","assessment 3","","307","components/portraits/StimImgGraceFraser.PNG","-20","","","","","-20","Grace Fraser","B",""
"","image-slider-response-modified","310","2896639","0.0-310.0","60125","DH-003","20:37:26","","","","","","","","","","","","assessment 4","","290","components/portraits/StimImgElenaAlves.PNG","-100","","","","","-100","Elena Alves","B",""
"","image-slider-response-modified","311","2896933","0.0-311.0","60125","DH-003","20:37:26","","","","","","","","","","","","assessment 5","","291","components/portraits/StimImgJonathanFraser.PNG","-22","","","","","-22","Jonathan Fraser","B",""
"","image-slider-response-modified","312","2897489","0.0-312.0","60125","DH-003","20:37:27","","","","","","","","","","","","assessment 6","","552","components/portraits/StimImgSylviaSteinetz.PNG","-80","","","","","-80","Sylvia Steinetz","B",""
"","image-slider-response-modified","313","2898101","0.0-313.0","60125","DH-003","20:37:27","","","","","","","","","","","","assessment 7","","609","components/portraits/StimImgHenryFraser.PNG","-100","","","","","-100","Henry Fraser","B",""
"","html-keyboard-response","314","2899104","0.0-314.0","60125","DH-003","20:37:28","","","","","","","","","","","","","","null","[""<p style=\""font-size: 36px; width: 1200px; line-height: 40px;\"">Returning to the video...""]","null","","","","","","","",""
"","browser-check","315","2900104","0.0-315.0","60125","DH-003","20:37:29","1470","919","true","chrome","129.0.0","false","Mac OS","true","60.08","true","true","Browser_Check","","","","","","","","","","","",""
"","video-keyboard-response","316","2971371","0.0-316.0","60125","DH-003","20:38:40","","","","","","","","","","","","video26","","null","[""components/stim/StimVid_Undoing2.mp4""]","null","","","","","","","",""
"","image-slider-response-modified","317","2979127","0.0-317.0","60125","DH-003","20:38:48","","","","","","","","","","","","assessment 0","","7753","components/portraits/StimImgFernandoAlves.PNG","-100","","","","","-100","Fernando Alves","B",""
"","image-slider-response-modified","318","2979667","0.0-318.0","60125","DH-003","20:38:49","","","","","","","","","","","","assessment 1","","536","components/portraits/StimImgFranklinReinhardt.PNG","-50","","","","","-50","Franklin Reinhardt","B",""
"","image-slider-response-modified","319","2980075","0.0-319.0","60125","DH-003","20:38:49","","","","","","","","","","","","assessment 2","","405","components/portraits/StimImgMiguelAlves.PNG","-100","","","","","-100","Miguel Alves","B",""
"","image-slider-response-modified","320","2980483","0.0-320.0","60125","DH-003","20:38:50","","","","","","","","","","","","assessment 3","","405","components/portraits/StimImgGraceFraser.PNG","-20","","","","","-20","Grace Fraser","B",""
"","image-slider-response-modified","321","2980883","0.0-321.0","60125","DH-003","20:38:50","","","","","","","","","","","","assessment 4","","397","components/portraits/StimImgElenaAlves.PNG","-100","","","","","-100","Elena Alves","B",""
"","image-slider-response-modified","322","2987353","0.0-322.0","60125","DH-003","20:38:56","","","","","","","","","","","","assessment 5","","6466","components/portraits/StimImgJonathanFraser.PNG","27","","","","","-22","Jonathan Fraser","B",""
"","image-slider-response-modified","323","2988806","0.0-323.0","60125","DH-003","20:38:58","","","","","","","","","","","","assessment 6","","1450","components/portraits/StimImgSylviaSteinetz.PNG","-80","","","","","-80","Sylvia Steinetz","B",""
"","image-slider-response-modified","324","2989142","0.0-324.0","60125","DH-003","20:38:58","","","","","","","","","","","","assessment 7","","332","components/portraits/StimImgHenryFraser.PNG","-100","","","","","-100","Henry Fraser","B",""
"","html-keyboard-response","325","2990145","0.0-325.0","60125","DH-003","20:38:59","","","","","","","","","","","","","","null","[""<p style=\""font-size: 36px; width: 1200px; line-height: 40px;\"">Returning to the video...""]","null","","","","","","","",""
"","browser-check","326","2991153","0.0-326.0","60125","DH-003","20:39:0","1470","919","true","chrome","129.0.0","false","Mac OS","true","59.62","true","true","Browser_Check","","","","","","","","","","","",""
"","video-keyboard-response","327","3058401","0.0-327.0","60125","DH-003","20:40:7","","","","","","","","","","","","video27","","null","[""components/stim/StimVid_Undoing2.mp4""]","null","","","","","","","",""
"","image-slider-response-modified","328","3062793","0.0-328.0","60125","DH-003","20:40:12","","","","","","","","","","","","assessment 0","","4388","components/portraits/StimImgFernandoAlves.PNG","-100","","","","","-100","Fernando Alves","B",""
"","image-slider-response-modified","329","3063299","0.0-329.0","60125","DH-003","20:40:12","","","","","","","","","","","","assessment 1","","503","components/portraits/StimImgFranklinReinhardt.PNG","-50","","","","","-50","Franklin Reinhardt","B",""
"","image-slider-response-modified","330","3064026","0.0-330.0","60125","DH-003","20:40:13","","","","","","","","","","","","assessment 2","","723","components/portraits/StimImgMiguelAlves.PNG","-100","","","","","-100","Miguel Alves","B",""
"","image-slider-response-modified","331","3064998","0.0-331.0","60125","DH-003","20:40:14","","","","","","","","","","","","assessment 3","","969","components/portraits/StimImgGraceFraser.PNG","-20","","","","","-20","Grace Fraser","B",""
"","image-slider-response-modified","332","3065456","0.0-332.0","60125","DH-003","20:40:14","","","","","","","","","","","","assessment 4","","455","components/portraits/StimImgElenaAlves.PNG","-100","","","","","-100","Elena Alves","B",""
"","image-slider-response-modified","333","3068959","0.0-333.0","60125","DH-003","20:40:18","","","","","","","","","","","","assessment 5","","3500","components/portraits/StimImgJonathanFraser.PNG","27","","","","","27","Jonathan Fraser","B",""
"","image-slider-response-modified","334","3069580","0.0-334.0","60125","DH-003","20:40:19","","","","","","","","","","","","assessment 6","","618","components/portraits/StimImgSylviaSteinetz.PNG","-80","","","","","-80","Sylvia Steinetz","B",""
"","image-slider-response-modified","335","3069923","0.0-335.0","60125","DH-003","20:40:19","","","","","","","","","","","","assessment 7","","340","components/portraits/StimImgHenryFraser.PNG","-100","","","","","-100","Henry Fraser","B",""
"","html-keyboard-response","336","3070926","0.0-336.0","60125","DH-003","20:40:20","","","","","","","","","","","","","","null","[""<p style=\""font-size: 36px; width: 1200px; line-height: 40px;\"">Returning to the video...""]","null","","","","","","","",""
"","browser-check","337","3071935","0.0-337.0","60125","DH-003","20:40:21","1470","919","true","chrome","129.0.0","false","Mac OS","true","59.56","true","true","Browser_Check","","","","","","","","","","","",""
"","video-keyboard-response","338","3157244","0.0-338.0","60125","DH-003","20:41:46","","","","","","","","","","","","video28","","null","[""components/stim/StimVid_Undoing2.mp4""]","null","","","","","","","",""
"","image-slider-response-modified","339","3175043","0.0-339.0","60125","DH-003","20:42:4","","","","","","","","","","","","assessment 0","","17796","components/portraits/StimImgFernandoAlves.PNG","-100","","","","","-100","Fernando Alves","B",""
"","image-slider-response-modified","340","3175459","0.0-340.0","60125","DH-003","20:42:4","","","","","","","","","","","","assessment 1","","413","components/portraits/StimImgFranklinReinhardt.PNG","-50","","","","","-50","Franklin Reinhardt","B",""
"","image-slider-response-modified","341","3177297","0.0-341.0","60125","DH-003","20:42:6","","","","","","","","","","","","assessment 2","","1834","components/portraits/StimImgMiguelAlves.PNG","-100","","","","","-100","Miguel Alves","B",""
"","image-slider-response-modified","342","3177648","0.0-342.0","60125","DH-003","20:42:7","","","","","","","","","","","","assessment 3","","349","components/portraits/StimImgGraceFraser.PNG","-20","","","","","-20","Grace Fraser","B",""
"","image-slider-response-modified","343","3177975","0.0-343.0","60125","DH-003","20:42:7","","","","","","","","","","","","assessment 4","","323","components/portraits/StimImgElenaAlves.PNG","-100","","","","","-100","Elena Alves","B",""
"","image-slider-response-modified","344","3178685","0.0-344.0","60125","DH-003","20:42:8","","","","","","","","","","","","assessment 5","","708","components/portraits/StimImgJonathanFraser.PNG","27","","","","","27","Jonathan Fraser","B",""
"","image-slider-response-modified","345","3179078","0.0-345.0","60125","DH-003","20:42:8","","","","","","","","","","","","assessment 6","","388","components/portraits/StimImgSylviaSteinetz.PNG","-80","","","","","-80","Sylvia Steinetz","B",""
"","image-slider-response-modified","346","3179633","0.0-346.0","60125","DH-003","20:42:9","","","","","","","","","","","","assessment 7","","552","components/portraits/StimImgHenryFraser.PNG","-100","","","","","-100","Henry Fraser","B",""
"","html-keyboard-response","347","3180636","0.0-347.0","60125","DH-003","20:42:10","","","","","","","","","","","","","","null","[""<p style=\""font-size: 36px; width: 1200px; line-height: 40px;\"">Returning to the video...""]","null","","","","","","","",""
"","browser-check","348","3181633","0.0-348.0","60125","DH-003","20:42:11","1470","919","true","chrome","129.0.0","false","Mac OS","true","60.23","true","true","Browser_Check","","","","","","","","","","","",""
"","video-keyboard-response","349","3258993","0.0-349.0","60125","DH-003","20:43:28","","","","","","","","","","","","video29","","null","[""components/stim/StimVid_Undoing2.mp4""]","null","","","","","","","",""
"","image-slider-response-modified","350","3260939","0.0-350.0","60125","DH-003","20:43:30","","","","","","","","","","","","assessment 0","","1943","components/portraits/StimImgFernandoAlves.PNG","-100","","","","","-100","Fernando Alves","B",""
"","image-slider-response-modified","351","3266199","0.0-351.0","60125","DH-003","20:43:35","","","","","","","","","","","","assessment 1","","5256","components/portraits/StimImgFranklinReinhardt.PNG","13","","","","","-50","Franklin Reinhardt","B",""
"","image-slider-response-modified","352","3266795","0.0-352.0","60125","DH-003","20:43:36","","","","","","","","","","","","assessment 2","","593","components/portraits/StimImgMiguelAlves.PNG","-100","","","","","-100","Miguel Alves","B",""
"","image-slider-response-modified","353","3270609","0.0-353.0","60125","DH-003","20:43:40","","","","","","","","","","","","assessment 3","","3810","components/portraits/StimImgGraceFraser.PNG","5","","","","","-20","Grace Fraser","B",""
"","image-slider-response-modified","354","3271344","0.0-354.0","60125","DH-003","20:43:40","","","","","","","","","","","","assessment 4","","733","components/portraits/StimImgElenaAlves.PNG","-100","","","","","-100","Elena Alves","B",""
"","image-slider-response-modified","355","3272433","0.0-355.0","60125","DH-003","20:43:41","","","","","","","","","","","","assessment 5","","1086","components/portraits/StimImgJonathanFraser.PNG","27","","","","","27","Jonathan Fraser","B",""
"","image-slider-response-modified","356","3272994","0.0-356.0","60125","DH-003","20:43:42","","","","","","","","","","","","assessment 6","","558","components/portraits/StimImgSylviaSteinetz.PNG","-80","","","","","-80","Sylvia Steinetz","B",""
"","image-slider-response-modified","357","3273516","0.0-357.0","60125","DH-003","20:43:43","","","","","","","","","","","","assessment 7","","519","components/portraits/StimImgHenryFraser.PNG","-100","","","","","-100","Henry Fraser","B",""
"","html-keyboard-response","358","3274519","0.0-358.0","60125","DH-003","20:43:44","","","","","","","","","","","","","","null","[""<p style=\""font-size: 36px; width: 1200px; line-height: 40px;\"">Returning to the video...""]","null","","","","","","","",""
"","browser-check","359","3275516","0.0-359.0","60125","DH-003","20:43:45","1470","919","true","chrome","129.0.0","false","Mac OS","true","60.31","true","true","Browser_Check","","","","","","","","","","","",""
"","video-keyboard-response","360","3366679","0.0-360.0","60125","DH-003","20:45:16","","","","","","","","","","","","video30","","null","[""components/stim/StimVid_Undoing2.mp4""]","null","","","","","","","",""
"","image-slider-response-modified","361","3372731","0.0-361.0","60125","DH-003","20:45:22","","","","","","","","","","","","assessment 0","","6049","components/portraits/StimImgFernandoAlves.PNG","-100","","","","","-100","Fernando Alves","B",""
"","image-slider-response-modified","362","3373279","0.0-362.0","60125","DH-003","20:45:22","","","","","","","","","","","","assessment 1","","544","components/portraits/StimImgFranklinReinhardt.PNG","13","","","","","13","Franklin Reinhardt","B",""
"","image-slider-response-modified","363","3373867","0.0-363.0","60125","DH-003","20:45:23","","","","","","","","","","","","assessment 2","","585","components/portraits/StimImgMiguelAlves.PNG","-100","","","","","-100","Miguel Alves","B",""
"","image-slider-response-modified","364","3374389","0.0-364.0","60125","DH-003","20:45:23","","","","","","","","","","","","assessment 3","","519","components/portraits/StimImgGraceFraser.PNG","5","","","","","5","Grace Fraser","B",""
"","image-slider-response-modified","365","3374904","0.0-365.0","60125","DH-003","20:45:24","","","","","","","","","","","","assessment 4","","512","components/portraits/StimImgElenaAlves.PNG","-100","","","","","-100","Elena Alves","B",""
"","image-slider-response-modified","366","3375386","0.0-366.0","60125","DH-003","20:45:24","","","","","","","","","","","","assessment 5","","479","components/portraits/StimImgJonathanFraser.PNG","27","","","","","27","Jonathan Fraser","B",""
"","image-slider-response-modified","367","3375843","0.0-367.0","60125","DH-003","20:45:25","","","","","","","","","","","","assessment 6","","454","components/portraits/StimImgSylviaSteinetz.PNG","-80","","","","","-80","Sylvia Steinetz","B",""
"","image-slider-response-modified","368","3376235","0.0-368.0","60125","DH-003","20:45:25","","","","","","","","","","","","assessment 7","","389","components/portraits/StimImgHenryFraser.PNG","-100","","","","","-100","Henry Fraser","B",""
"","html-keyboard-response","369","3377238","0.0-369.0","60125","DH-003","20:45:26","","","","","","","","","","","","","","null","[""<p style=\""font-size: 36px; width: 1200px; line-height: 40px;\"">Returning to the video...""]","null","","","","","","","",""
"","browser-check","370","3378248","0.0-370.0","60125","DH-003","20:45:27","1470","919","true","chrome","129.0.0","false","Mac OS","true","59.51","true","true","Browser_Check","","","","","","","","","","","",""
"","video-keyboard-response","371","3459601","0.0-371.0","60125","DH-003","20:46:49","","","","","","","","","","","","video31","","null","[""components/stim/StimVid_Undoing2.mp4""]","null","","","","","","","",""
"","image-slider-response-modified","372","3462482","0.0-372.0","60125","DH-003","20:46:52","","","","","","","","","","","","assessment 0","","2878","components/portraits/StimImgFernandoAlves.PNG","-100","","","","","-100","Fernando Alves","B",""
"","image-slider-response-modified","373","3463047","0.0-373.0","60125","DH-003","20:46:52","","","","","","","","","","","","assessment 1","","561","components/portraits/StimImgFranklinReinhardt.PNG","13","","","","","13","Franklin Reinhardt","B",""
"","image-slider-response-modified","374","3463789","0.0-374.0","60125","DH-003","20:46:53","","","","","","","","","","","","assessment 2","","739","components/portraits/StimImgMiguelAlves.PNG","-100","","","","","-100","Miguel Alves","B",""
"","image-slider-response-modified","375","3464109","0.0-375.0","60125","DH-003","20:46:53","","","","","","","","","","","","assessment 3","","316","components/portraits/StimImgGraceFraser.PNG","5","","","","","5","Grace Fraser","B",""
"","image-slider-response-modified","376","3464802","0.0-376.0","60125","DH-003","20:46:54","","","","","","","","","","","","assessment 4","","690","components/portraits/StimImgElenaAlves.PNG","-100","","","","","-100","Elena Alves","B",""
"","image-slider-response-modified","377","3467971","0.0-377.0","60125","DH-003","20:46:57","","","","","","","","","","","","assessment 5","","3165","components/portraits/StimImgJonathanFraser.PNG","44","","","","","27","Jonathan Fraser","B",""
"","image-slider-response-modified","378","3468584","0.0-378.0","60125","DH-003","20:46:58","","","","","","","","","","","","assessment 6","","609","components/portraits/StimImgSylviaSteinetz.PNG","-80","","","","","-80","Sylvia Steinetz","B",""
"","image-slider-response-modified","379","3469367","0.0-379.0","60125","DH-003","20:46:58","","","","","","","","","","","","assessment 7","","780","components/portraits/StimImgHenryFraser.PNG","-100","","","","","-100","Henry Fraser","B",""
"","html-keyboard-response","380","3470370","0.0-380.0","60125","DH-003","20:46:59","","","","","","","","","","","","","","null","[""<p style=\""font-size: 36px; width: 1200px; line-height: 40px;\"">Returning to the video...""]","null","","","","","","","",""
"","browser-check","381","3471380","0.0-381.0","60125","DH-003","20:47:0","1470","919","true","chrome","129.0.0","false","Mac OS","true","59.55","true","true","Browser_Check","","","","","","","","","","","",""
"","video-keyboard-response","382","3556709","0.0-382.0","60125","DH-003","20:48:26","","","","","","","","","","","","video32","","null","[""components/stim/StimVid_Undoing2.mp4""]","null","","","","","","","",""
"","image-slider-response-modified","383","3561340","0.0-383.0","60125","DH-003","20:48:30","","","","","","","","","","","","assessment 0","","4628","components/portraits/StimImgFernandoAlves.PNG","-100","","","","","-100","Fernando Alves","B",""
"","image-slider-response-modified","384","3561634","0.0-384.0","60125","DH-003","20:48:31","","","","","","","","","","","","assessment 1","","291","components/portraits/StimImgFranklinReinhardt.PNG","13","","","","","13","Franklin Reinhardt","B",""
"","image-slider-response-modified","385","3561997","0.0-385.0","60125","DH-003","20:48:31","","","","","","","","","","","","assessment 2","","359","components/portraits/StimImgMiguelAlves.PNG","-100","","","","","-100","Miguel Alves","B",""
"","image-slider-response-modified","386","3562312","0.0-386.0","60125","DH-003","20:48:31","","","","","","","","","","","","assessment 3","","314","components/portraits/StimImgGraceFraser.PNG","5","","","","","5","Grace Fraser","B",""
"","image-slider-response-modified","387","3562658","0.0-387.0","60125","DH-003","20:48:32","","","","","","","","","","","","assessment 4","","344","components/portraits/StimImgElenaAlves.PNG","-100","","","","","-100","Elena Alves","B",""
"","image-slider-response-modified","388","3563006","0.0-388.0","60125","DH-003","20:48:32","","","","","","","","","","","","assessment 5","","346","components/portraits/StimImgJonathanFraser.PNG","44","","","","","44","Jonathan Fraser","B",""
"","image-slider-response-modified","389","3563374","0.0-389.0","60125","DH-003","20:48:32","","","","","","","","","","","","assessment 6","","364","components/portraits/StimImgSylviaSteinetz.PNG","-80","","","","","-80","Sylvia Steinetz","B",""
"","image-slider-response-modified","390","3563905","0.0-390.0","60125","DH-003","20:48:33","","","","","","","","","","","","assessment 7","","528","components/portraits/StimImgHenryFraser.PNG","-100","","","","","-100","Henry Fraser","B",""
"","html-keyboard-response","391","3564907","0.0-391.0","60125","DH-003","20:48:34","","","","","","","","","","","","","","null","[""<p style=\""font-size: 36px; width: 1200px; line-height: 40px;\"">Returning to the video...""]","null","","","","","","","",""
"","browser-check","392","3565912","0.0-392.0","60125","DH-003","20:48:35","1470","919","true","chrome","129.0.0","false","Mac OS","true","59.83","true","true","Browser_Check","","","","","","","","","","","",""
"","video-keyboard-response","393","3635286","0.0-393.0","60125","DH-003","20:49:44","","","","","","","","","","","","video33","","null","[""components/stim/StimVid_Undoing2.mp4""]","null","","","","","","","",""
"","image-slider-response-modified","394","3637424","0.0-394.0","60125","DH-003","20:49:46","","","","","","","","","","","","assessment 0","","2134","components/portraits/StimImgFernandoAlves.PNG","-100","","","","","-100","Fernando Alves","B",""
"","image-slider-response-modified","395","3637996","0.0-395.0","60125","DH-003","20:49:47","","","","","","","","","","","","assessment 1","","569","components/portraits/StimImgFranklinReinhardt.PNG","13","","","","","13","Franklin Reinhardt","B",""
"","image-slider-response-modified","396","3638584","0.0-396.0","60125","DH-003","20:49:48","","","","","","","","","","","","assessment 2","","585","components/portraits/StimImgMiguelAlves.PNG","-100","","","","","-100","Miguel Alves","B",""
"","image-slider-response-modified","397","3641909","0.0-397.0","60125","DH-003","20:49:51","","","","","","","","","","","","assessment 3","","3321","components/portraits/StimImgGraceFraser.PNG","13","","","","","5","Grace Fraser","B",""
"","image-slider-response-modified","398","3642872","0.0-398.0","60125","DH-003","20:49:52","","","","","","","","","","","","assessment 4","","961","components/portraits/StimImgElenaAlves.PNG","-100","","","","","-100","Elena Alves","B",""
"","image-slider-response-modified","399","3643534","0.0-399.0","60125","DH-003","20:49:53","","","","","","","","","","","","assessment 5","","658","components/portraits/StimImgJonathanFraser.PNG","44","","","","","44","Jonathan Fraser","B",""
