"trial_id","trial_type","trial_index","time_elapsed","internal_node_id","subject_id","break_id","time","width","height","webaudio","browser","browser_version","mobile","os","fullscreen","vsync_rate","webcam","microphone","task","success","rt","stimulus","response","timeout","failed_images","failed_audio","failed_video","slider_start","character","label_condition","question_order"
"pavlovia_init","pavlovia","0","965","0.0-0.0","59661","DH-011","15:16:56","","","","","","","","","","","","","","","","","","","","","","","",""
"","browser-check","1","1974","0.0-1.0","59661","DH-011","15:16:57","1392","717","true","chrome","121.0.0","false","Mac OS","true","60.07","true","true","Browser_Check","","","","","","","","","","","",""
"","fullscreen","2","4607","0.0-2.0","59661","DH-011","15:16:59","","","","","","","","","","","","Fullscreen","true","1628","","","","","","","","","",""
"","html-keyboard-response","3","12023","0.0-3.0","59661","DH-011","15:17:7","","","","","","","","","","","","Instruction","","7414","[""<p style=\""font-size: 36px; width: 1200px; line-height: 40px;\"">During this experiment, you will watch an episode of a publicly broadcasted murder mystery television show.<br><br>It contains adult themes and graphic language. While the video will portray a character accused of a violent crime, as well as verbal descriptions of the crime, <strong>violence will not be shown</strong>, nor will any other graphic visual content.<br><br><br>If you are not comfortable with continuing, please exit this experiment now.<br><br><br><br>Otherwise, please press the <strong>SPACE BAR</strong> to continue.</p>""]"," ","","","","","","","",""
"","preload","4","13030","0.0-4.0","59661","DH-011","15:17:8","","","","","","","","","","","","Preload","true","","","","false","[]","[]","[]","","","",""
"","image-button-response-modified","5","60420","0.0-5.0","59661","DH-011","15:17:55","","","","","","","","","","","","Consent","","47388","components/consent/SONA.png","0","","","","","","","",""
"","html-keyboard-response","6","61407","0.0-6.0","59661","DH-011","15:17:56","","","","","","","","","","","","Instr_Task","","985","<p style=""font-size: 36px; width: 1200px; line-height: 40px;"">Thank you for agreeing to participate in this experiment! <br><br><br><br> Please press the <strong>SPACE BAR</strong> to continue</p>"," ","","","","","","","",""
"","html-keyboard-response","7","63527","0.0-7.0","59661","DH-011","15:17:58","","","","","","","","","","","","Instr_Task","","2119","<p style=""font-size: 36px; width: 1200px; line-height: 40px;"">Before we begin, please be sure that you are in a good space to complete the experiment. This space should be: <br><br><br><br> <strong>Comfortable <br><br> Distraction-free <br><br> Available for the next 60 minutes</strong> <br><br><br><br><br> Please press the <strong>SPACE BAR</strong> to continue</p>"," ","","","","","","","",""
"","html-keyboard-response","8","71662","0.0-8.0","59661","DH-011","15:18:6","","","","","","","","","","","","Instr_Task","","8134","<p style=""font-size: 36px; width: 1200px; line-height: 40px;""><strong>Please give your full attention to the experiment. This includes:</strong> <br><br><br><br> Closing or minimizing other programs on your computer <br><br> Silencing your phone or placing it somewhere it will not be distracting <br><br> Testing that your audio is working and set to a comfortable volume that you can clearly hear <br><br> Not completing this experiment with others present <br><br><br><br><br> Please press the <strong>SPACE BAR</strong> to continue</p>"," ","","","","","","","",""
"","html-keyboard-response","9","77701","0.0-9.0","59661","DH-011","15:18:12","","","","","","","","","","","","Instr_Task","","6038","<p style=""font-size: 36px; width: 1200px; line-height: 40px;"">You will watch 45 minutes of a crime mystery drama in which one character is suspected of having murdered another.<br><br><br>We will present background information about the characters of the show and the surrounding context before the episode begins.<br><br><br><br> Please press the <strong>SPACE BAR</strong> to continue</p>"," ","","","","","","","",""
"","html-keyboard-response","10","85915","0.0-10.0","59661","DH-011","15:18:21","","","","","","","","","","","","Instr_Task","","8213","<p style=""font-size: 36px; width: 1200px; line-height: 40px;"">The video will intermittently pause while you watch to assess how certain <strong>you</strong> are that different characters in the show are guilty or innocent of having committed the murder.<br><br><br><br> Please press the <strong>SPACE BAR</strong> to continue</p>"," ","","","","","","","",""
"","html-keyboard-response","11","90989","0.0-11.0","59661","DH-011","15:18:26","","","","","","","","","","","","Instr_Task","","5073","<p style=""font-size: 36px; width: 1200px; line-height: 40px;"">These certainty assessments tend to be flexible and may shift upon hearing something that a character says or seeing something that a character does or events that occur when a character is not on screen.<br><br><br>Some of this information may influence your assessments only slightly while other information may influence your assessments a great deal.<br><br><br>When prompted, please update your rating of how certain you are of each character's innocence or guilt at that moment in time. <br><br><br> Please try to be as precise as you can.<br><br><br><br> Please press the <strong>SPACE BAR</strong> to continue</p>"," ","","","","","","","",""
"","html-keyboard-response","12","98343","0.0-12.0","59661","DH-011","15:18:33","","","","","","","","","","","","Instr_Task","","7354","<p style=""font-size: 36px; width: 1200px; line-height: 40px;"">These certainty assessments will be assessed on a continuous scale. <br><br><br> The scale ranges from 100% certain that a character is guilty to 100% certain that a character is innocent.<br><br><br>Leaving the scale in the middle (i.e., 0% certain) would indicate that you are completely uncertain whether a character is innocent or guilt.<br><br><br><br> Please press the <strong>SPACE BAR</strong> to continue</p>"," ","","","","","","","",""
"","html-keyboard-response","13","116376","0.0-13.0","59661","DH-011","15:18:51","","","","","","","","","","","","Instr_Task","","18032","<p style=""font-size: 36px; width: 1200px; line-height: 40px;"">After your first rating, we will mark the scale where you had last rated that character to hopefully make updating your certainty rating easier. <br><br><br>A progress bar at the top will show the order in which you will assess the characters.<br><br><br>A portrait in the center of the screen will identify which character you are assessing at that moment.<br><br><br>Let's look at an example of what this looks like.<br><br><br><br> Please press the <strong>SPACE BAR</strong> to continue</p>"," ","","","","","","","",""
"","preload","14","117589","0.0-14.0","59661","DH-011","15:18:52","","","","","","","","","","","","Preload","true","","","","false","[]","[]","[]","","","",""
"","image-slider-response-modified","15","129588","0.0-15.0","59661","DH-011","15:19:4","","","","","","","","","","","","Practice","","11993","components/portraits/StimImgGraceFraser.PNG","50","","","","","0","Grace Fraser","A",""
"","html-keyboard-response","16","134497","0.0-17.0","59661","DH-011","15:19:9","","","","","","","","","","","","PracticeSuccess","","4908","[""<p style=\""font-size: 36px; width: 1200px; line-height: 40px;\"">Great! If you have any questions that you must have answered before continuing, please contact study staff via the recruitment platform.<br><br><br>If you are ready to start, we will present the background information.<br><br><br><br> Please press the <strong>SPACE BAR</strong> to continue</p>""]"," ","","","","","","","",""
"","image-keyboard-response-modified","17","148811","0.0-18.0","59661","DH-011","15:19:23","","","","","","","","","","","","Background","","14306","[""components/portraits/StimImgElenaAlves.PNG"",""components/portraits/StimImgJonathanFraser.PNG""]"," ","","","","","","","",""
"","image-keyboard-response-modified","18","164639","0.0-19.0","59661","DH-011","15:19:39","","","","","","","","","","","","Background","","15827","[""components/portraits/StimImgElenaAlves.PNG"",""components/portraits/StimImgJonathanFraser.PNG""]"," ","","","","","","","",""
"","image-keyboard-response-modified","19","172338","0.0-20.0","59661","DH-011","15:19:47","","","","","","","","","","","","Background","","7697","[""components/portraits/StimImgMiguelAlves.PNG"",""components/portraits/StimImgHenryFraser.PNG""]"," ","","","","","","","",""
"","image-keyboard-response-modified","20","181275","0.0-21.0","59661","DH-011","15:19:56","","","","","","","","","","","","Background","","8935","[""components/portraits/StimImgFernandoAlves.PNG"",""components/portraits/StimImgGraceFraser.PNG""]"," ","","","","","","","",""
"","image-keyboard-response-modified","21","195647","0.0-22.0","59661","DH-011","15:20:10","","","","","","","","","","","","Background","","14371","[""components/portraits/StimImgSylviaSteinetz.PNG"",""components/portraits/StimImgFranklinReinhardt.PNG""]"," ","","","","","","","",""
"","image-keyboard-response-modified","22","206711","0.0-23.0","59661","DH-011","15:20:21","","","","","","","","","","","","Background","","11062","[""components/portraits/StimImgRobertAdelman.PNG"",""components/portraits/StimImgHaleyFitzgerald.PNG""]"," ","","","","","","","",""
"","image-keyboard-response-modified","23","217262","0.0-24.0","59661","DH-011","15:20:32","","","","","","","","","","","","Background","","10549","[""components/portraits/StimImgJoeMendoza.PNG""]"," ","","","","","","","",""
"","html-keyboard-response","24","218994","0.0-25.0","59661","DH-011","15:20:34","","","","","","","","","","","","Instr_ExpStart","","1730","[""<p style=\""font-size: 36px; width: 1200px; line-height: 40px;\"">The experiment will now start! <br><br><br><br> Please press the <strong>SPACE BAR</strong> to continue</p>""]"," ","","","","","","","",""
"","preload","25","242276","0.0-26.0","59661","DH-011","15:20:57","","","","","","","","","","","","Preload","true","","","","false","[]","[]","[]","","","",""
"","browser-check","26","243274","0.0-27.0","59661","DH-011","15:20:58","1440","900","true","chrome","121.0.0","false","Mac OS","true","60.54","true","true","Browser_Check","","","","","","","","","","","",""
"","video-keyboard-response","27","289746","0.0-28.0","59661","DH-011","15:21:44","","","","","","","","","","","","video 0","","null","[""components/stim/StimVid_Undoing1.mp4""]","null","","","","","","","",""
"","image-slider-response-modified","28","317786","0.0-29.0","59661","DH-011","15:22:12","","","","","","","","","","","","assessment 0","","28035","components/portraits/StimImgGraceFraser.PNG","50","","","","","0","Grace Fraser","A",""
"","image-slider-response-modified","29","331735","0.0-30.0","59661","DH-011","15:22:26","","","","","","","","","","","","assessment 1","","13943","components/portraits/StimImgHenryFraser.PNG","100","","","","","0","Henry Fraser","A",""
"","image-slider-response-modified","30","339784","0.0-31.0","59661","DH-011","15:22:34","","","","","","","","","","","","assessment 2","","8046","components/portraits/StimImgMiguelAlves.PNG","84","","","","","0","Miguel Alves","A",""
"","image-slider-response-modified","31","348602","0.0-32.0","59661","DH-011","15:22:43","","","","","","","","","","","","assessment 3","","8814","components/portraits/StimImgFranklinReinhardt.PNG","29","","","","","0","Franklin Reinhardt","A",""
"","image-slider-response-modified","32","356585","0.0-33.0","59661","DH-011","15:22:51","","","","","","","","","","","","assessment 4","","7978","components/portraits/StimImgJonathanFraser.PNG","-76","","","","","0","Jonathan Fraser","A",""
"","image-slider-response-modified","33","362736","0.0-34.0","59661","DH-011","15:22:57","","","","","","","","","","","","assessment 5","","6148","components/portraits/StimImgElenaAlves.PNG","-16","","","","","0","Elena Alves","A",""
"","image-slider-response-modified","34","367152","0.0-35.0","59661","DH-011","15:23:2","","","","","","","","","","","","assessment 6","","4411","components/portraits/StimImgSylviaSteinetz.PNG","70","","","","","0","Sylvia Steinetz","A",""
"","image-slider-response-modified","35","374469","0.0-36.0","59661","DH-011","15:23:9","","","","","","","","","","","","assessment 7","","7313","components/portraits/StimImgFernandoAlves.PNG","-85","","","","","0","Fernando Alves","A",""
"","html-keyboard-response","36","375477","0.0-37.0","59661","DH-011","15:23:10","","","","","","","","","","","","","","null","[""<p style=\""font-size: 36px; width: 1200px; line-height: 40px;\"">Returning to the video...""]","null","","","","","","","",""
"","browser-check","37","376490","0.0-38.0","59661","DH-011","15:23:11","1440","900","true","chrome","121.0.0","false","Mac OS","true","59.57","true","true","Browser_Check","","","","","","","","","","","",""
"","video-keyboard-response","38","443835","0.0-39.0","59661","DH-011","15:24:18","","","","","","","","","","","","video 1","","null","[""components/stim/StimVid_Undoing1.mp4""]","null","","","","","","","",""
"","image-slider-response-modified","39","460619","0.0-40.0","59661","DH-011","15:24:35","","","","","","","","","","","","assessment 0","","16776","components/portraits/StimImgGraceFraser.PNG","50","","","","","50","Grace Fraser","A",""
"","image-slider-response-modified","40","471969","0.0-41.0","59661","DH-011","15:24:47","","","","","","","","","","","","assessment 1","","11345","components/portraits/StimImgHenryFraser.PNG","100","","","","","100","Henry Fraser","A",""
"","image-slider-response-modified","41","476052","0.0-42.0","59661","DH-011","15:24:51","","","","","","","","","","","","assessment 2","","4079","components/portraits/StimImgMiguelAlves.PNG","88","","","","","84","Miguel Alves","A",""
"","image-slider-response-modified","42","478352","0.0-43.0","59661","DH-011","15:24:53","","","","","","","","","","","","assessment 3","","2297","components/portraits/StimImgFranklinReinhardt.PNG","29","","","","","29","Franklin Reinhardt","A",""
"","image-slider-response-modified","43","487968","0.0-44.0","59661","DH-011","15:25:3","","","","","","","","","","","","assessment 4","","9611","components/portraits/StimImgJonathanFraser.PNG","-66","","","","","-76","Jonathan Fraser","A",""
"","image-slider-response-modified","44","488819","0.0-45.0","59661","DH-011","15:25:3","","","","","","","","","","","","assessment 5","","847","components/portraits/StimImgElenaAlves.PNG","-16","","","","","-16","Elena Alves","A",""
"","image-slider-response-modified","45","489735","0.0-46.0","59661","DH-011","15:25:4","","","","","","","","","","","","assessment 6","","912","components/portraits/StimImgSylviaSteinetz.PNG","70","","","","","70","Sylvia Steinetz","A",""
"","image-slider-response-modified","46","491719","0.0-47.0","59661","DH-011","15:25:6","","","","","","","","","","","","assessment 7","","1982","components/portraits/StimImgFernandoAlves.PNG","-85","","","","","-85","Fernando Alves","A",""
"","html-keyboard-response","47","492727","0.0-48.0","59661","DH-011","15:25:7","","","","","","","","","","","","","","null","[""<p style=\""font-size: 36px; width: 1200px; line-height: 40px;\"">Returning to the video...""]","null","","","","","","","",""
"","browser-check","48","493722","0.0-49.0","59661","DH-011","15:25:8","1440","900","true","chrome","121.0.0","false","Mac OS","true","60.48","true","true","Browser_Check","","","","","","","","","","","",""
"","video-keyboard-response","49","584976","0.0-50.0","59661","DH-011","15:26:40","","","","","","","","","","","","video 2","","null","[""components/stim/StimVid_Undoing1.mp4""]","null","","","","","","","",""
"","image-slider-response-modified","50","599102","0.0-51.0","59661","DH-011","15:26:54","","","","","","","","","","","","assessment 0","","14122","components/portraits/StimImgGraceFraser.PNG","-90","","","","","50","Grace Fraser","A",""
"","image-slider-response-modified","51","600169","0.0-52.0","59661","DH-011","15:26:55","","","","","","","","","","","","assessment 1","","1062","components/portraits/StimImgHenryFraser.PNG","100","","","","","100","Henry Fraser","A",""
"","image-slider-response-modified","52","600888","0.0-53.0","59661","DH-011","15:26:55","","","","","","","","","","","","assessment 2","","714","components/portraits/StimImgMiguelAlves.PNG","88","","","","","88","Miguel Alves","A",""
"","image-slider-response-modified","53","601553","0.0-54.0","59661","DH-011","15:26:56","","","","","","","","","","","","assessment 3","","661","components/portraits/StimImgFranklinReinhardt.PNG","29","","","","","29","Franklin Reinhardt","A",""
"","image-slider-response-modified","54","602018","0.0-55.0","59661","DH-011","15:26:57","","","","","","","","","","","","assessment 4","","462","components/portraits/StimImgJonathanFraser.PNG","-66","","","","","-66","Jonathan Fraser","A",""
"","image-slider-response-modified","55","602702","0.0-56.0","59661","DH-011","15:26:57","","","","","","","","","","","","assessment 5","","681","components/portraits/StimImgElenaAlves.PNG","-16","","","","","-16","Elena Alves","A",""
"","image-slider-response-modified","56","603101","0.0-57.0","59661","DH-011","15:26:58","","","","","","","","","","","","assessment 6","","396","components/portraits/StimImgSylviaSteinetz.PNG","70","","","","","70","Sylvia Steinetz","A",""
"","image-slider-response-modified","57","604467","0.0-58.0","59661","DH-011","15:26:59","","","","","","","","","","","","assessment 7","","1362","components/portraits/StimImgFernandoAlves.PNG","-85","","","","","-85","Fernando Alves","A",""
"","html-keyboard-response","58","605474","0.0-59.0","59661","DH-011","15:27:0","","","","","","","","","","","","","","null","[""<p style=\""font-size: 36px; width: 1200px; line-height: 40px;\"">Returning to the video...""]","null","","","","","","","",""
"","browser-check","59","606473","0.0-60.0","59661","DH-011","15:27:1","1440","900","true","chrome","121.0.0","false","Mac OS","true","60.35","true","true","Browser_Check","","","","","","","","","","","",""
"","video-keyboard-response","60","695867","0.0-61.0","59661","DH-011","15:28:30","","","","","","","","","","","","video 3","","null","[""components/stim/StimVid_Undoing1.mp4""]","null","","","","","","","",""
"","image-slider-response-modified","61","699634","0.0-62.0","59661","DH-011","15:28:34","","","","","","","","","","","","assessment 0","","3753","components/portraits/StimImgGraceFraser.PNG","-90","","","","","-90","Grace Fraser","A",""
"","image-slider-response-modified","62","700685","0.0-63.0","59661","DH-011","15:28:35","","","","","","","","","","","","assessment 1","","1047","components/portraits/StimImgHenryFraser.PNG","100","","","","","100","Henry Fraser","A",""
"","image-slider-response-modified","63","702921","0.0-64.0","59661","DH-011","15:28:38","","","","","","","","","","","","assessment 2","","2223","components/portraits/StimImgMiguelAlves.PNG","88","","","","","88","Miguel Alves","A",""
"","image-slider-response-modified","64","711302","0.0-65.0","59661","DH-011","15:28:46","","","","","","","","","","","","assessment 3","","8378","components/portraits/StimImgFranklinReinhardt.PNG","24","","","","","29","Franklin Reinhardt","A",""
"","image-slider-response-modified","65","712168","0.0-66.0","59661","DH-011","15:28:47","","","","","","","","","","","","assessment 4","","862","components/portraits/StimImgJonathanFraser.PNG","-66","","","","","-66","Jonathan Fraser","A",""
"","image-slider-response-modified","66","712968","0.0-67.0","59661","DH-011","15:28:48","","","","","","","","","","","","assessment 5","","797","components/portraits/StimImgElenaAlves.PNG","-16","","","","","-16","Elena Alves","A",""
"","image-slider-response-modified","67","713685","0.0-68.0","59661","DH-011","15:28:48","","","","","","","","","","","","assessment 6","","712","components/portraits/StimImgSylviaSteinetz.PNG","70","","","","","70","Sylvia Steinetz","A",""
"","image-slider-response-modified","68","714319","0.0-69.0","59661","DH-011","15:28:49","","","","","","","","","","","","assessment 7","","631","components/portraits/StimImgFernandoAlves.PNG","-85","","","","","-85","Fernando Alves","A",""
"","html-keyboard-response","69","715326","0.0-70.0","59661","DH-011","15:28:50","","","","","","","","","","","","","","null","[""<p style=\""font-size: 36px; width: 1200px; line-height: 40px;\"">Returning to the video...""]","null","","","","","","","",""
"","browser-check","70","716323","0.0-71.0","59661","DH-011","15:28:51","1440","900","true","chrome","121.0.0","false","Mac OS","true","60.46","true","true","Browser_Check","","","","","","","","","","","",""
"","video-keyboard-response","71","791630","0.0-72.0","59661","DH-011","15:30:6","","","","","","","","","","","","video 4","","null","[""components/stim/StimVid_Undoing1.mp4""]","null","","","","","","","",""
"","image-slider-response-modified","72","794218","0.0-73.0","59661","DH-011","15:30:9","","","","","","","","","","","","assessment 0","","2583","components/portraits/StimImgGraceFraser.PNG","-90","","","","","-90","Grace Fraser","A",""
"","image-slider-response-modified","73","794951","0.0-74.0","59661","DH-011","15:30:10","","","","","","","","","","","","assessment 1","","730","components/portraits/StimImgHenryFraser.PNG","100","","","","","100","Henry Fraser","A",""
"","image-slider-response-modified","74","795771","0.0-75.0","59661","DH-011","15:30:10","","","","","","","","","","","","assessment 2","","815","components/portraits/StimImgMiguelAlves.PNG","88","","","","","88","Miguel Alves","A",""
"","image-slider-response-modified","75","796668","0.0-76.0","59661","DH-011","15:30:11","","","","","","","","","","","","assessment 3","","893","components/portraits/StimImgFranklinReinhardt.PNG","24","","","","","24","Franklin Reinhardt","A",""
"","image-slider-response-modified","76","802668","0.0-77.0","59661","DH-011","15:30:17","","","","","","","","","","","","assessment 4","","5997","components/portraits/StimImgJonathanFraser.PNG","-82","","","","","-66","Jonathan Fraser","A",""
"","image-slider-response-modified","77","803719","0.0-78.0","59661","DH-011","15:30:18","","","","","","","","","","","","assessment 5","","1047","components/portraits/StimImgElenaAlves.PNG","-16","","","","","-16","Elena Alves","A",""
"","image-slider-response-modified","78","804168","0.0-79.0","59661","DH-011","15:30:19","","","","","","","","","","","","assessment 6","","446","components/portraits/StimImgSylviaSteinetz.PNG","70","","","","","70","Sylvia Steinetz","A",""
"","image-slider-response-modified","79","805152","0.0-80.0","59661","DH-011","15:30:20","","","","","","","","","","","","assessment 7","","980","components/portraits/StimImgFernandoAlves.PNG","-85","","","","","-85","Fernando Alves","A",""
"","html-keyboard-response","80","806157","0.0-81.0","59661","DH-011","15:30:21","","","","","","","","","","","","","","null","[""<p style=\""font-size: 36px; width: 1200px; line-height: 40px;\"">Returning to the video...""]","null","","","","","","","",""
"","browser-check","81","807156","0.0-82.0","59661","DH-011","15:30:22","1440","900","true","chrome","121.0.0","false","Mac OS","true","60.33","true","true","Browser_Check","","","","","","","","","","","",""
"","video-keyboard-response","82","926536","0.0-83.0","59661","DH-011","15:32:21","","","","","","","","","","","","video 5","","null","[""components/stim/StimVid_Undoing1.mp4""]","null","","","","","","","",""
"","image-slider-response-modified","83","955936","0.0-84.0","59661","DH-011","15:32:51","","","","","","","","","","","","assessment 0","","29395","components/portraits/StimImgGraceFraser.PNG","-90","","","","","-90","Grace Fraser","A",""
"","image-slider-response-modified","84","956668","0.0-85.0","59661","DH-011","15:32:51","","","","","","","","","","","","assessment 1","","728","components/portraits/StimImgHenryFraser.PNG","100","","","","","100","Henry Fraser","A",""
"","image-slider-response-modified","85","957134","0.0-86.0","59661","DH-011","15:32:52","","","","","","","","","","","","assessment 2","","462","components/portraits/StimImgMiguelAlves.PNG","88","","","","","88","Miguel Alves","A",""
"","image-slider-response-modified","86","958118","0.0-87.0","59661","DH-011","15:32:53","","","","","","","","","","","","assessment 3","","979","components/portraits/StimImgFranklinReinhardt.PNG","24","","","","","24","Franklin Reinhardt","A",""
"","image-slider-response-modified","87","959634","0.0-88.0","59661","DH-011","15:32:54","","","","","","","","","","","","assessment 4","","1513","components/portraits/StimImgJonathanFraser.PNG","-82","","","","","-82","Jonathan Fraser","A",""
"","image-slider-response-modified","88","960719","0.0-89.0","59661","DH-011","15:32:55","","","","","","","","","","","","assessment 5","","1063","components/portraits/StimImgElenaAlves.PNG","-16","","","","","-16","Elena Alves","A",""
"","image-slider-response-modified","89","961736","0.0-90.0","59661","DH-011","15:32:56","","","","","","","","","","","","assessment 6","","1014","components/portraits/StimImgSylviaSteinetz.PNG","70","","","","","70","Sylvia Steinetz","A",""
"","image-slider-response-modified","90","962568","0.0-91.0","59661","DH-011","15:32:57","","","","","","","","","","","","assessment 7","","828","components/portraits/StimImgFernandoAlves.PNG","-85","","","","","-85","Fernando Alves","A",""
"","html-keyboard-response","91","963575","0.0-92.0","59661","DH-011","15:32:58","","","","","","","","","","","","","","null","[""<p style=\""font-size: 36px; width: 1200px; line-height: 40px;\"">Returning to the video...""]","null","","","","","","","",""
"","browser-check","92","964573","0.0-93.0","59661","DH-011","15:32:59","1440","900","true","chrome","121.0.0","false","Mac OS","true","60.42","true","true","Browser_Check","","","","","","","","","","","",""
"","video-keyboard-response","93","1065925","0.0-94.0","59661","DH-011","15:34:41","","","","","","","","","","","","video 6","","null","[""components/stim/StimVid_Undoing1.mp4""]","null","","","","","","","",""
"","image-slider-response-modified","94","1077651","0.0-95.0","59661","DH-011","15:34:52","","","","","","","","","","","","assessment 0","","11720","components/portraits/StimImgGraceFraser.PNG","-52","","","","","-90","Grace Fraser","A",""
"","image-slider-response-modified","95","1078551","0.0-96.0","59661","DH-011","15:34:53","","","","","","","","","","","","assessment 1","","896","components/portraits/StimImgHenryFraser.PNG","100","","","","","100","Henry Fraser","A",""
"","image-slider-response-modified","96","1081418","0.0-97.0","59661","DH-011","15:34:56","","","","","","","","","","","","assessment 2","","2862","components/portraits/StimImgMiguelAlves.PNG","88","","","","","88","Miguel Alves","A",""
"","image-slider-response-modified","97","1083884","0.0-98.0","59661","DH-011","15:34:58","","","","","","","","","","","","assessment 3","","2462","components/portraits/StimImgFranklinReinhardt.PNG","24","","","","","24","Franklin Reinhardt","A",""
"","image-slider-response-modified","98","1085635","0.0-99.0","59661","DH-011","15:35:0","","","","","","","","","","","","assessment 4","","1747","components/portraits/StimImgJonathanFraser.PNG","-82","","","","","-82","Jonathan Fraser","A",""
"","image-slider-response-modified","99","1086635","0.0-100.0","59661","DH-011","15:35:1","","","","","","","","","","","","assessment 5","","996","components/portraits/StimImgElenaAlves.PNG","-16","","","","","-16","Elena Alves","A",""
"","image-slider-response-modified","100","1088303","0.0-101.0","59661","DH-011","15:35:3","","","","","","","","","","","","assessment 6","","1663","components/portraits/StimImgSylviaSteinetz.PNG","70","","","","","70","Sylvia Steinetz","A",""
"","image-slider-response-modified","101","1089018","0.0-102.0","59661","DH-011","15:35:4","","","","","","","","","","","","assessment 7","","710","components/portraits/StimImgFernandoAlves.PNG","-85","","","","","-85","Fernando Alves","A",""
"","html-keyboard-response","102","1090025","0.0-103.0","59661","DH-011","15:35:5","","","","","","","","","","","","","","null","[""<p style=\""font-size: 36px; width: 1200px; line-height: 40px;\"">Returning to the video...""]","null","","","","","","","",""
"","browser-check","103","1091022","0.0-104.0","59661","DH-011","15:35:6","1440","900","true","chrome","121.0.0","false","Mac OS","true","60.39","true","true","Browser_Check","","","","","","","","","","","",""
"","video-keyboard-response","104","1164491","0.0-105.0","59661","DH-011","15:36:19","","","","","","","","","","","","video 7","","null","[""components/stim/StimVid_Undoing1.mp4""]","null","","","","","","","",""
"","image-slider-response-modified","105","1173367","0.0-106.0","59661","DH-011","15:36:28","","","","","","","","","","","","assessment 0","","8871","components/portraits/StimImgGraceFraser.PNG","-45","","","","","-52","Grace Fraser","A",""
"","image-slider-response-modified","106","1174236","0.0-107.0","59661","DH-011","15:36:29","","","","","","","","","","","","assessment 1","","864","components/portraits/StimImgHenryFraser.PNG","100","","","","","100","Henry Fraser","A",""
"","image-slider-response-modified","107","1178718","0.0-108.0","59661","DH-011","15:36:33","","","","","","","","","","","","assessment 2","","4471","components/portraits/StimImgMiguelAlves.PNG","88","","","","","88","Miguel Alves","A",""
"","image-slider-response-modified","108","1185020","0.0-109.0","59661","DH-011","15:36:40","","","","","","","","","","","","assessment 3","","6297","components/portraits/StimImgFranklinReinhardt.PNG","10","","","","","24","Franklin Reinhardt","A",""
"","image-slider-response-modified","109","1187534","0.0-110.0","59661","DH-011","15:36:42","","","","","","","","","","","","assessment 4","","2509","components/portraits/StimImgJonathanFraser.PNG","-82","","","","","-82","Jonathan Fraser","A",""
"","image-slider-response-modified","110","1188452","0.0-111.0","59661","DH-011","15:36:43","","","","","","","","","","","","assessment 5","","914","components/portraits/StimImgElenaAlves.PNG","-16","","","","","-16","Elena Alves","A",""
"","image-slider-response-modified","111","1189500","0.0-112.0","59661","DH-011","15:36:44","","","","","","","","","","","","assessment 6","","1044","components/portraits/StimImgSylviaSteinetz.PNG","70","","","","","70","Sylvia Steinetz","A",""
"","image-slider-response-modified","112","1191551","0.0-113.0","59661","DH-011","15:36:46","","","","","","","","","","","","assessment 7","","2048","components/portraits/StimImgFernandoAlves.PNG","-85","","","","","-85","Fernando Alves","A",""
"","html-keyboard-response","113","1192557","0.0-114.0","59661","DH-011","15:36:47","","","","","","","","","","","","","","null","[""<p style=\""font-size: 36px; width: 1200px; line-height: 40px;\"">Returning to the video...""]","null","","","","","","","",""
"","browser-check","114","1193556","0.0-115.0","59661","DH-011","15:36:48","1440","900","true","chrome","121.0.0","false","Mac OS","true","60.37","true","true","Browser_Check","","","","","","","","","","","",""
"","video-keyboard-response","115","1272853","0.0-116.0","59661","DH-011","15:38:7","","","","","","","","","","","","video 8","","null","[""components/stim/StimVid_Undoing1.mp4""]","null","","","","","","","",""
"","image-slider-response-modified","116","1280055","0.0-117.0","59661","DH-011","15:38:15","","","","","","","","","","","","assessment 0","","7194","components/portraits/StimImgGraceFraser.PNG","-45","","","","","-45","Grace Fraser","A",""
"","image-slider-response-modified","117","1280888","0.0-118.0","59661","DH-011","15:38:15","","","","","","","","","","","","assessment 1","","831","components/portraits/StimImgHenryFraser.PNG","100","","","","","100","Henry Fraser","A",""
"","image-slider-response-modified","118","1282238","0.0-119.0","59661","DH-011","15:38:17","","","","","","","","","","","","assessment 2","","1346","components/portraits/StimImgMiguelAlves.PNG","88","","","","","88","Miguel Alves","A",""
"","image-slider-response-modified","119","1288739","0.0-120.0","59661","DH-011","15:38:23","","","","","","","","","","","","assessment 3","","6496","components/portraits/StimImgFranklinReinhardt.PNG","3","","","","","10","Franklin Reinhardt","A",""
"","image-slider-response-modified","120","1295039","0.0-121.0","59661","DH-011","15:38:30","","","","","","","","","","","","assessment 4","","6296","components/portraits/StimImgJonathanFraser.PNG","-85","","","","","-82","Jonathan Fraser","A",""
"","image-slider-response-modified","121","1297206","0.0-122.0","59661","DH-011","15:38:32","","","","","","","","","","","","assessment 5","","2163","components/portraits/StimImgElenaAlves.PNG","-16","","","","","-16","Elena Alves","A",""
"","image-slider-response-modified","122","1298423","0.0-123.0","59661","DH-011","15:38:33","","","","","","","","","","","","assessment 6","","1212","components/portraits/StimImgSylviaSteinetz.PNG","70","","","","","70","Sylvia Steinetz","A",""
"","image-slider-response-modified","123","1300474","0.0-124.0","59661","DH-011","15:38:35","","","","","","","","","","","","assessment 7","","2046","components/portraits/StimImgFernandoAlves.PNG","-85","","","","","-85","Fernando Alves","A",""
"","html-keyboard-response","124","1301481","0.0-125.0","59661","DH-011","15:38:36","","","","","","","","","","","","","","null","[""<p style=\""font-size: 36px; width: 1200px; line-height: 40px;\"">Returning to the video...""]","null","","","","","","","",""
"","browser-check","125","1302478","0.0-126.0","59661","DH-011","15:38:37","1440","900","true","chrome","121.0.0","false","Mac OS","true","60.48","true","true","Browser_Check","","","","","","","","","","","",""
"","video-keyboard-response","126","1373772","0.0-127.0","59661","DH-011","15:39:48","","","","","","","","","","","","video 9","","null","[""components/stim/StimVid_Undoing1.mp4""]","null","","","","","","","",""
"","image-slider-response-modified","127","1382841","0.0-128.0","59661","DH-011","15:39:57","","","","","","","","","","","","assessment 0","","9063","components/portraits/StimImgGraceFraser.PNG","-45","","","","","-45","Grace Fraser","A",""
"","image-slider-response-modified","128","1389890","0.0-129.0","59661","DH-011","15:40:4","","","","","","","","","","","","assessment 1","","7044","components/portraits/StimImgHenryFraser.PNG","100","","","","","100","Henry Fraser","A",""
"","image-slider-response-modified","129","1390790","0.0-130.0","59661","DH-011","15:40:5","","","","","","","","","","","","assessment 2","","895","components/portraits/StimImgMiguelAlves.PNG","88","","","","","88","Miguel Alves","A",""
"","image-slider-response-modified","130","1392056","0.0-131.0","59661","DH-011","15:40:7","","","","","","","","","","","","assessment 3","","1262","components/portraits/StimImgFranklinReinhardt.PNG","3","","","","","3","Franklin Reinhardt","A",""
"","image-slider-response-modified","131","1393790","0.0-132.0","59661","DH-011","15:40:8","","","","","","","","","","","","assessment 4","","1730","components/portraits/StimImgJonathanFraser.PNG","-85","","","","","-85","Jonathan Fraser","A",""
"","image-slider-response-modified","132","1423024","0.0-133.0","59661","DH-011","15:40:38","","","","","","","","","","","","assessment 5","","29229","components/portraits/StimImgElenaAlves.PNG","90","","","","","-16","Elena Alves","A",""
"","image-slider-response-modified","133","1424325","0.0-134.0","59661","DH-011","15:40:39","","","","","","","","","","","","assessment 6","","1296","components/portraits/StimImgSylviaSteinetz.PNG","70","","","","","70","Sylvia Steinetz","A",""
"","image-slider-response-modified","134","1425890","0.0-135.0","59661","DH-011","15:40:40","","","","","","","","","","","","assessment 7","","1561","components/portraits/StimImgFernandoAlves.PNG","-85","","","","","-85","Fernando Alves","A",""
"","html-keyboard-response","135","1426897","0.0-136.0","59661","DH-011","15:40:42","","","","","","","","","","","","","","null","[""<p style=\""font-size: 36px; width: 1200px; line-height: 40px;\"">Returning to the video...""]","null","","","","","","","",""
"","browser-check","136","1427895","0.0-137.0","59661","DH-011","15:40:43","1440","900","true","chrome","121.0.0","false","Mac OS","true","60.38","true","true","Browser_Check","","","","","","","","","","","",""
"","video-keyboard-response","137","1525252","0.0-138.0","59661","DH-011","15:42:20","","","","","","","","","","","","video 10","","null","[""components/stim/StimVid_Undoing1.mp4""]","null","","","","","","","",""
"","image-slider-response-modified","138","1529291","0.0-139.0","59661","DH-011","15:42:24","","","","","","","","","","","","assessment 0","","4034","components/portraits/StimImgGraceFraser.PNG","-45","","","","","-45","Grace Fraser","A",""
"","image-slider-response-modified","139","1533841","0.0-140.0","59661","DH-011","15:42:28","","","","","","","","","","","","assessment 1","","4546","components/portraits/StimImgHenryFraser.PNG","100","","","","","100","Henry Fraser","A",""
"","image-slider-response-modified","140","1540757","0.0-141.0","59661","DH-011","15:42:35","","","","","","","","","","","","assessment 2","","6911","components/portraits/StimImgMiguelAlves.PNG","100","","","","","88","Miguel Alves","A",""
"","image-slider-response-modified","141","1541973","0.0-142.0","59661","DH-011","15:42:37","","","","","","","","","","","","assessment 3","","1212","components/portraits/StimImgFranklinReinhardt.PNG","3","","","","","3","Franklin Reinhardt","A",""
"","image-slider-response-modified","142","1542940","0.0-143.0","59661","DH-011","15:42:38","","","","","","","","","","","","assessment 4","","963","components/portraits/StimImgJonathanFraser.PNG","-85","","","","","-85","Jonathan Fraser","A",""
"","image-slider-response-modified","143","1544975","0.0-144.0","59661","DH-011","15:42:40","","","","","","","","","","","","assessment 5","","2031","components/portraits/StimImgElenaAlves.PNG","90","","","","","90","Elena Alves","A",""
"","image-slider-response-modified","144","1545924","0.0-145.0","59661","DH-011","15:42:41","","","","","","","","","","","","assessment 6","","944","components/portraits/StimImgSylviaSteinetz.PNG","70","","","","","70","Sylvia Steinetz","A",""
"","image-slider-response-modified","145","1546840","0.0-146.0","59661","DH-011","15:42:41","","","","","","","","","","","","assessment 7","","911","components/portraits/StimImgFernandoAlves.PNG","-85","","","","","-85","Fernando Alves","A",""
"","html-keyboard-response","146","1547847","0.0-147.0","59661","DH-011","15:42:42","","","","","","","","","","","","","","null","[""<p style=\""font-size: 36px; width: 1200px; line-height: 40px;\"">Returning to the video...""]","null","","","","","","","",""
"","browser-check","147","1548844","0.0-148.0","59661","DH-011","15:42:43","1440","900","true","chrome","121.0.0","false","Mac OS","true","60.39","true","true","Browser_Check","","","","","","","","","","","",""
"","video-keyboard-response","148","1628127","0.0-149.0","59661","DH-011","15:44:3","","","","","","","","","","","","video 11","","null","[""components/stim/StimVid_Undoing1.mp4""]","null","","","","","","","",""
"","image-slider-response-modified","149","1631924","0.0-150.0","59661","DH-011","15:44:7","","","","","","","","","","","","assessment 0","","3790","components/portraits/StimImgGraceFraser.PNG","-45","","","","","-45","Grace Fraser","A",""
"","image-slider-response-modified","150","1632807","0.0-151.0","59661","DH-011","15:44:7","","","","","","","","","","","","assessment 1","","880","components/portraits/StimImgHenryFraser.PNG","100","","","","","100","Henry Fraser","A",""
"","image-slider-response-modified","151","1634007","0.0-152.0","59661","DH-011","15:44:9","","","","","","","","","","","","assessment 2","","1196","components/portraits/StimImgMiguelAlves.PNG","100","","","","","100","Miguel Alves","A",""
"","image-slider-response-modified","152","1640640","0.0-153.0","59661","DH-011","15:44:15","","","","","","","","","","","","assessment 3","","6628","components/portraits/StimImgFranklinReinhardt.PNG","-52","","","","","3","Franklin Reinhardt","A",""
"","image-slider-response-modified","153","1641490","0.0-154.0","59661","DH-011","15:44:16","","","","","","","","","","","","assessment 4","","842","components/portraits/StimImgJonathanFraser.PNG","-85","","","","","-85","Jonathan Fraser","A",""
"","image-slider-response-modified","154","1642690","0.0-155.0","59661","DH-011","15:44:17","","","","","","","","","","","","assessment 5","","1196","components/portraits/StimImgElenaAlves.PNG","90","","","","","90","Elena Alves","A",""
"","image-slider-response-modified","155","1643507","0.0-156.0","59661","DH-011","15:44:18","","","","","","","","","","","","assessment 6","","813","components/portraits/StimImgSylviaSteinetz.PNG","70","","","","","70","Sylvia Steinetz","A",""
"","image-slider-response-modified","156","1644507","0.0-157.0","59661","DH-011","15:44:19","","","","","","","","","","","","assessment 7","","996","components/portraits/StimImgFernandoAlves.PNG","-85","","","","","-85","Fernando Alves","A",""
"","html-keyboard-response","157","1645513","0.0-158.0","59661","DH-011","15:44:20","","","","","","","","","","","","","","null","[""<p style=\""font-size: 36px; width: 1200px; line-height: 40px;\"">Returning to the video...""]","null","","","","","","","",""
"","browser-check","158","1646512","0.0-159.0","59661","DH-011","15:44:21","1440","900","true","chrome","121.0.0","false","Mac OS","true","60.34","true","true","Browser_Check","","","","","","","","","","","",""
"","video-keyboard-response","159","1717817","0.0-160.0","59661","DH-011","15:45:32","","","","","","","","","","","","video 12","","null","[""components/stim/StimVid_Undoing1.mp4""]","null","","","","","","","",""
"","image-slider-response-modified","160","1721240","0.0-161.0","59661","DH-011","15:45:36","","","","","","","","","","","","assessment 0","","3419","components/portraits/StimImgGraceFraser.PNG","-45","","","","","-45","Grace Fraser","A",""
"","image-slider-response-modified","161","1723190","0.0-162.0","59661","DH-011","15:45:38","","","","","","","","","","","","assessment 1","","1946","components/portraits/StimImgHenryFraser.PNG","100","","","","","100","Henry Fraser","A",""
"","image-slider-response-modified","162","1724741","0.0-163.0","59661","DH-011","15:45:39","","","","","","","","","","","","assessment 2","","1547","components/portraits/StimImgMiguelAlves.PNG","100","","","","","100","Miguel Alves","A",""
"","image-slider-response-modified","163","1726007","0.0-164.0","59661","DH-011","15:45:41","","","","","","","","","","","","assessment 3","","1263","components/portraits/StimImgFranklinReinhardt.PNG","-52","","","","","-52","Franklin Reinhardt","A",""
"","image-slider-response-modified","164","1726841","0.0-165.0","59661","DH-011","15:45:41","","","","","","","","","","","","assessment 4","","829","components/portraits/StimImgJonathanFraser.PNG","-85","","","","","-85","Jonathan Fraser","A",""
"","image-slider-response-modified","165","1727507","0.0-166.0","59661","DH-011","15:45:42","","","","","","","","","","","","assessment 5","","662","components/portraits/StimImgElenaAlves.PNG","90","","","","","90","Elena Alves","A",""
"","image-slider-response-modified","166","1728057","0.0-167.0","59661","DH-011","15:45:43","","","","","","","","","","","","assessment 6","","546","components/portraits/StimImgSylviaSteinetz.PNG","70","","","","","70","Sylvia Steinetz","A",""
"","image-slider-response-modified","167","1728607","0.0-168.0","59661","DH-011","15:45:43","","","","","","","","","","","","assessment 7","","545","components/portraits/StimImgFernandoAlves.PNG","-85","","","","","-85","Fernando Alves","A",""
"","html-keyboard-response","168","1729614","0.0-169.0","59661","DH-011","15:45:44","","","","","","","","","","","","","","null","[""<p style=\""font-size: 36px; width: 1200px; line-height: 40px;\"">Returning to the video...""]","null","","","","","","","",""
"","browser-check","169","1730612","0.0-170.0","59661","DH-011","15:45:45","1440","900","true","chrome","121.0.0","false","Mac OS","true","60.42","true","true","Browser_Check","","","","","","","","","","","",""
"","video-keyboard-response","170","1800047","0.0-171.0","59661","DH-011","15:46:55","","","","","","","","","","","","video 13","","null","[""components/stim/StimVid_Undoing1.mp4""]","null","","","","","","","",""
"","image-slider-response-modified","171","1806223","0.0-172.0","59661","DH-011","15:47:1","","","","","","","","","","","","assessment 0","","6173","components/portraits/StimImgGraceFraser.PNG","3","","","","","-45","Grace Fraser","A",""
"","image-slider-response-modified","172","1807041","0.0-173.0","59661","DH-011","15:47:2","","","","","","","","","","","","assessment 1","","814","components/portraits/StimImgHenryFraser.PNG","100","","","","","100","Henry Fraser","A",""
"","image-slider-response-modified","173","1807590","0.0-174.0","59661","DH-011","15:47:2","","","","","","","","","","","","assessment 2","","545","components/portraits/StimImgMiguelAlves.PNG","100","","","","","100","Miguel Alves","A",""
"","image-slider-response-modified","174","1808157","0.0-175.0","59661","DH-011","15:47:3","","","","","","","","","","","","assessment 3","","562","components/portraits/StimImgFranklinReinhardt.PNG","-52","","","","","-52","Franklin Reinhardt","A",""
"","image-slider-response-modified","175","1808724","0.0-176.0","59661","DH-011","15:47:3","","","","","","","","","","","","assessment 4","","563","components/portraits/StimImgJonathanFraser.PNG","-85","","","","","-85","Jonathan Fraser","A",""
"","image-slider-response-modified","176","1809225","0.0-177.0","59661","DH-011","15:47:4","","","","","","","","","","","","assessment 5","","498","components/portraits/StimImgElenaAlves.PNG","90","","","","","90","Elena Alves","A",""
"","image-slider-response-modified","177","1809724","0.0-178.0","59661","DH-011","15:47:4","","","","","","","","","","","","assessment 6","","494","components/portraits/StimImgSylviaSteinetz.PNG","70","","","","","70","Sylvia Steinetz","A",""
"","image-slider-response-modified","178","1810257","0.0-179.0","59661","DH-011","15:47:5","","","","","","","","","","","","assessment 7","","528","components/portraits/StimImgFernandoAlves.PNG","-85","","","","","-85","Fernando Alves","A",""
"","html-keyboard-response","179","1811263","0.0-180.0","59661","DH-011","15:47:6","","","","","","","","","","","","","","null","[""<p style=\""font-size: 36px; width: 1200px; line-height: 40px;\"">Returning to the video...""]","null","","","","","","","",""
"","browser-check","180","1812262","0.0-181.0","59661","DH-011","15:47:7","1440","900","true","chrome","121.0.0","false","Mac OS","true","60.4","true","true","Browser_Check","","","","","","","","","","","",""
"","video-keyboard-response","181","1889690","0.0-182.0","59661","DH-011","15:48:24","","","","","","","","","","","","video 14","","null","[""components/stim/StimVid_Undoing1.mp4""]","null","","","","","","","",""
"","image-slider-response-modified","182","1894173","0.0-183.0","59661","DH-011","15:48:29","","","","","","","","","","","","assessment 0","","4479","components/portraits/StimImgGraceFraser.PNG","14","","","","","3","Grace Fraser","A",""
"","image-slider-response-modified","183","1894591","0.0-184.0","59661","DH-011","15:48:29","","","","","","","","","","","","assessment 1","","413","components/portraits/StimImgHenryFraser.PNG","100","","","","","100","Henry Fraser","A",""
"","image-slider-response-modified","184","1894893","0.0-185.0","59661","DH-011","15:48:30","","","","","","","","","","","","assessment 2","","298","components/portraits/StimImgMiguelAlves.PNG","100","","","","","100","Miguel Alves","A",""
"","image-slider-response-modified","185","1895191","0.0-186.0","59661","DH-011","15:48:30","","","","","","","","","","","","assessment 3","","295","components/portraits/StimImgFranklinReinhardt.PNG","-52","","","","","-52","Franklin Reinhardt","A",""
"","image-slider-response-modified","186","1895457","0.0-187.0","59661","DH-011","15:48:30","","","","","","","","","","","","assessment 4","","261","components/portraits/StimImgJonathanFraser.PNG","-85","","","","","-85","Jonathan Fraser","A",""
"","image-slider-response-modified","187","1895707","0.0-188.0","59661","DH-011","15:48:30","","","","","","","","","","","","assessment 5","","245","components/portraits/StimImgElenaAlves.PNG","90","","","","","90","Elena Alves","A",""
"","image-slider-response-modified","188","1895941","0.0-189.0","59661","DH-011","15:48:31","","","","","","","","","","","","assessment 6","","230","components/portraits/StimImgSylviaSteinetz.PNG","70","","","","","70","Sylvia Steinetz","A",""
"","image-slider-response-modified","189","1896224","0.0-190.0","59661","DH-011","15:48:31","","","","","","","","","","","","assessment 7","","279","components/portraits/StimImgFernandoAlves.PNG","-85","","","","","-85","Fernando Alves","A",""
"","html-keyboard-response","190","1897231","0.0-191.0","59661","DH-011","15:48:32","","","","","","","","","","","","","","null","[""<p style=\""font-size: 36px; width: 1200px; line-height: 40px;\"">Returning to the video...""]","null","","","","","","","",""
"","browser-check","191","1898229","0.0-192.0","59661","DH-011","15:48:33","1440","900","true","chrome","121.0.0","false","Mac OS","true","60.39","true","true","Browser_Check","","","","","","","","","","","",""
"","video-keyboard-response","192","1983611","0.0-193.0","59661","DH-011","15:49:58","","","","","","","","","","","","video 15","","null","[""components/stim/StimVid_Undoing1.mp4""]","null","","","","","","","",""
"","image-slider-response-modified","193","1999290","0.0-194.0","59661","DH-011","15:50:14","","","","","","","","","","","","assessment 0","","15674","components/portraits/StimImgGraceFraser.PNG","14","","","","","14","Grace Fraser","A",""
"","image-slider-response-modified","194","1999775","0.0-195.0","59661","DH-011","15:50:14","","","","","","","","","","","","assessment 1","","480","components/portraits/StimImgHenryFraser.PNG","100","","","","","100","Henry Fraser","A",""
"","image-slider-response-modified","195","2000074","0.0-196.0","59661","DH-011","15:50:15","","","","","","","","","","","","assessment 2","","292","components/portraits/StimImgMiguelAlves.PNG","100","","","","","100","Miguel Alves","A",""
"","image-slider-response-modified","196","2000357","0.0-197.0","59661","DH-011","15:50:15","","","","","","","","","","","","assessment 3","","278","components/portraits/StimImgFranklinReinhardt.PNG","-52","","","","","-52","Franklin Reinhardt","A",""
"","image-slider-response-modified","197","2000591","0.0-198.0","59661","DH-011","15:50:15","","","","","","","","","","","","assessment 4","","231","components/portraits/StimImgJonathanFraser.PNG","-85","","","","","-85","Jonathan Fraser","A",""
"","image-slider-response-modified","198","2000841","0.0-199.0","59661","DH-011","15:50:15","","","","","","","","","","","","assessment 5","","246","components/portraits/StimImgElenaAlves.PNG","90","","","","","90","Elena Alves","A",""
"","image-slider-response-modified","199","2001128","0.0-200.0","59661","DH-011","15:50:16","","","","","","","","","","","","assessment 6","","283","components/portraits/StimImgSylviaSteinetz.PNG","70","","","","","70","Sylvia Steinetz","A",""
"","image-slider-response-modified","200","2001643","0.0-201.0","59661","DH-011","15:50:16","","","","","","","","","","","","assessment 7","","510","components/portraits/StimImgFernandoAlves.PNG","-85","","","","","-85","Fernando Alves","A",""
"","html-keyboard-response","201","2002649","0.0-202.0","59661","DH-011","15:50:17","","","","","","","","","","","","","","null","[""<p style=\""font-size: 36px; width: 1200px; line-height: 40px;\"">Returning to the video...""]","null","","","","","","","",""
"","browser-check","202","2003645","0.0-203.0","59661","DH-011","15:50:18","1440","900","true","chrome","121.0.0","false","Mac OS","true","60.5","true","true","Browser_Check","","","","","","","","","","","",""
"","video-keyboard-response","203","2082939","0.0-204.0","59661","DH-011","15:51:38","","","","","","","","","","","","video 16","","null","[""components/stim/StimVid_Undoing1.mp4""]","null","","","","","","","",""
"","image-slider-response-modified","204","2087574","0.0-205.0","59661","DH-011","15:51:42","","","","","","","","","","","","assessment 0","","4630","components/portraits/StimImgGraceFraser.PNG","25","","","","","14","Grace Fraser","A",""
"","image-slider-response-modified","205","2088408","0.0-206.0","59661","DH-011","15:51:43","","","","","","","","","","","","assessment 1","","830","components/portraits/StimImgHenryFraser.PNG","100","","","","","100","Henry Fraser","A",""
"","image-slider-response-modified","206","2089157","0.0-207.0","59661","DH-011","15:51:44","","","","","","","","","","","","assessment 2","","737","components/portraits/StimImgMiguelAlves.PNG","100","","","","","100","Miguel Alves","A",""
"","image-slider-response-modified","207","2090091","0.0-208.0","59661","DH-011","15:51:45","","","","","","","","","","","","assessment 3","","930","components/portraits/StimImgFranklinReinhardt.PNG","-52","","","","","-52","Franklin Reinhardt","A",""
"","image-slider-response-modified","208","2094993","0.0-209.0","59661","DH-011","15:51:50","","","","","","","","","","","","assessment 4","","4898","components/portraits/StimImgJonathanFraser.PNG","-95","","","","","-85","Jonathan Fraser","A",""
"","image-slider-response-modified","209","2095693","0.0-210.0","59661","DH-011","15:51:50","","","","","","","","","","","","assessment 5","","696","components/portraits/StimImgElenaAlves.PNG","90","","","","","90","Elena Alves","A",""
"","image-slider-response-modified","210","2096641","0.0-211.0","59661","DH-011","15:51:51","","","","","","","","","","","","assessment 6","","944","components/portraits/StimImgSylviaSteinetz.PNG","70","","","","","70","Sylvia Steinetz","A",""
"","image-slider-response-modified","211","2097424","0.0-212.0","59661","DH-011","15:51:52","","","","","","","","","","","","assessment 7","","778","components/portraits/StimImgFernandoAlves.PNG","-85","","","","","-85","Fernando Alves","A",""
"","html-keyboard-response","212","2098432","0.0-213.0","59661","DH-011","15:51:53","","","","","","","","","","","","","","null","[""<p style=\""font-size: 36px; width: 1200px; line-height: 40px;\"">Returning to the video...""]","null","","","","","","","",""
"","browser-check","213","2099429","0.0-214.0","59661","DH-011","15:51:54","1440","900","true","chrome","121.0.0","false","Mac OS","true","60.44","true","true","Browser_Check","","","","","","","","","","","",""
"","preload","214","2118501","0.0-215.0","59661","DH-011","15:52:13","","","","","","","","","","","","Preload","true","","","","false","[]","[]","[]","","","",""
"","video-keyboard-response","215","2172776","0.0-216.0","59661","DH-011","","","","","","","","","","","","","video 17","","null","[""components/stim/StimVid_Undoing1.mp4""]","null","","","","","","","",""
"","video-keyboard-response","216","2190173","0.0-217.0","59661","DH-011","","","","","","","","","","","","","video 18","","null","[""components/stim/StimVid_Undoing2.mp4""]","null","","","","","","","",""
"","image-slider-response-modified","217","2192457","0.0-218.0","59661","DH-011","15:53:27","","","","","","","","","","","","assessment 0","","2278","components/portraits/StimImgGraceFraser.PNG","25","","","","","25","Grace Fraser","A",""
"","image-slider-response-modified","218","2192674","0.0-219.0","59661","DH-011","15:53:27","","","","","","","","","","","","assessment 1","","213","components/portraits/StimImgHenryFraser.PNG","100","","","","","100","Henry Fraser","A",""
"","image-slider-response-modified","219","2192908","0.0-220.0","59661","DH-011","15:53:28","","","","","","","","","","","","assessment 2","","229","components/portraits/StimImgMiguelAlves.PNG","100","","","","","100","Miguel Alves","A",""
"","image-slider-response-modified","220","2193125","0.0-221.0","59661","DH-011","15:53:28","","","","","","","","","","","","assessment 3","","213","components/portraits/StimImgFranklinReinhardt.PNG","-52","","","","","-52","Franklin Reinhardt","A",""
"","image-slider-response-modified","221","2193340","0.0-222.0","59661","DH-011","15:53:28","","","","","","","","","","","","assessment 4","","211","components/portraits/StimImgJonathanFraser.PNG","-95","","","","","-95","Jonathan Fraser","A",""
"","image-slider-response-modified","222","2193608","0.0-223.0","59661","DH-011","15:53:28","","","","","","","","","","","","assessment 5","","264","components/portraits/StimImgElenaAlves.PNG","90","","","","","90","Elena Alves","A",""
"","image-slider-response-modified","223","2193907","0.0-224.0","59661","DH-011","15:53:29","","","","","","","","","","","","assessment 6","","296","components/portraits/StimImgSylviaSteinetz.PNG","70","","","","","70","Sylvia Steinetz","A",""
"","image-slider-response-modified","224","2194258","0.0-225.0","59661","DH-011","15:53:29","","","","","","","","","","","","assessment 7","","346","components/portraits/StimImgFernandoAlves.PNG","-85","","","","","-85","Fernando Alves","A",""
"","html-keyboard-response","225","2195266","0.0-226.0","59661","DH-011","15:53:30","","","","","","","","","","","","","","null","[""<p style=\""font-size: 36px; width: 1200px; line-height: 40px;\"">Returning to the video...""]","null","","","","","","","",""
"","browser-check","226","2196262","0.0-227.0","59661","DH-011","15:53:31","1440","900","true","chrome","121.0.0","false","Mac OS","true","60.47","true","true","Browser_Check","","","","","","","","","","","",""
"","video-keyboard-response","227","2281655","0.0-228.0","59661","DH-011","15:54:56","","","","","","","","","","","","video18","","null","[""components/stim/StimVid_Undoing2.mp4""]","null","","","","","","","",""
"","image-slider-response-modified","228","2285091","0.0-229.0","59661","DH-011","15:55:0","","","","","","","","","","","","assessment 0","","3430","components/portraits/StimImgGraceFraser.PNG","25","","","","","25","Grace Fraser","A",""
"","image-slider-response-modified","229","2285475","0.0-230.0","59661","DH-011","15:55:0","","","","","","","","","","","","assessment 1","","380","components/portraits/StimImgHenryFraser.PNG","100","","","","","100","Henry Fraser","A",""
"","image-slider-response-modified","230","2285991","0.0-231.0","59661","DH-011","15:55:1","","","","","","","","","","","","assessment 2","","512","components/portraits/StimImgMiguelAlves.PNG","100","","","","","100","Miguel Alves","A",""
"","image-slider-response-modified","231","2286692","0.0-232.0","59661","DH-011","15:55:1","","","","","","","","","","","","assessment 3","","696","components/portraits/StimImgFranklinReinhardt.PNG","-52","","","","","-52","Franklin Reinhardt","A",""
"","image-slider-response-modified","232","2287524","0.0-233.0","59661","DH-011","15:55:2","","","","","","","","","","","","assessment 4","","827","components/portraits/StimImgJonathanFraser.PNG","-95","","","","","-95","Jonathan Fraser","A",""
"","image-slider-response-modified","233","2288224","0.0-234.0","59661","DH-011","15:55:3","","","","","","","","","","","","assessment 5","","697","components/portraits/StimImgElenaAlves.PNG","90","","","","","90","Elena Alves","A",""
"","image-slider-response-modified","234","2289540","0.0-235.0","59661","DH-011","15:55:4","","","","","","","","","","","","assessment 6","","1310","components/portraits/StimImgSylviaSteinetz.PNG","70","","","","","70","Sylvia Steinetz","A",""
"","image-slider-response-modified","235","2293373","0.0-236.0","59661","DH-011","15:55:8","","","","","","","","","","","","assessment 7","","3828","components/portraits/StimImgFernandoAlves.PNG","-76","","","","","-85","Fernando Alves","A",""
"","html-keyboard-response","236","2294380","0.0-237.0","59661","DH-011","15:55:9","","","","","","","","","","","","","","null","[""<p style=\""font-size: 36px; width: 1200px; line-height: 40px;\"">Returning to the video...""]","null","","","","","","","",""
"","browser-check","237","2295379","0.0-238.0","59661","DH-011","15:55:10","1440","900","true","chrome","121.0.0","false","Mac OS","true","60.31","true","true","Browser_Check","","","","","","","","","","","",""
"","video-keyboard-response","238","2428599","0.0-239.0","59661","DH-011","15:57:23","","","","","","","","","","","","video19","","null","[""components/stim/StimVid_Undoing2.mp4""]","null","","","","","","","",""
"","image-slider-response-modified","239","2431859","0.0-240.0","59661","DH-011","15:57:26","","","","","","","","","","","","assessment 0","","3254","components/portraits/StimImgGraceFraser.PNG","25","","","","","25","Grace Fraser","A",""
"","image-slider-response-modified","240","2432276","0.0-241.0","59661","DH-011","15:57:27","","","","","","","","","","","","assessment 1","","412","components/portraits/StimImgHenryFraser.PNG","100","","","","","100","Henry Fraser","A",""
"","image-slider-response-modified","241","2432507","0.0-242.0","59661","DH-011","15:57:27","","","","","","","","","","","","assessment 2","","225","components/portraits/StimImgMiguelAlves.PNG","100","","","","","100","Miguel Alves","A",""
"","image-slider-response-modified","242","2432758","0.0-243.0","59661","DH-011","15:57:27","","","","","","","","","","","","assessment 3","","248","components/portraits/StimImgFranklinReinhardt.PNG","-52","","","","","-52","Franklin Reinhardt","A",""
"","image-slider-response-modified","243","2432976","0.0-244.0","59661","DH-011","15:57:28","","","","","","","","","","","","assessment 4","","213","components/portraits/StimImgJonathanFraser.PNG","-95","","","","","-95","Jonathan Fraser","A",""
"","image-slider-response-modified","244","2433259","0.0-245.0","59661","DH-011","15:57:28","","","","","","","","","","","","assessment 5","","279","components/portraits/StimImgElenaAlves.PNG","90","","","","","90","Elena Alves","A",""
"","image-slider-response-modified","245","2433574","0.0-246.0","59661","DH-011","15:57:28","","","","","","","","","","","","assessment 6","","312","components/portraits/StimImgSylviaSteinetz.PNG","70","","","","","70","Sylvia Steinetz","A",""
"","image-slider-response-modified","246","2433791","0.0-247.0","59661","DH-011","15:57:28","","","","","","","","","","","","assessment 7","","212","components/portraits/StimImgFernandoAlves.PNG","-76","","","","","-76","Fernando Alves","A",""
"","html-keyboard-response","247","2434792","0.0-248.0","59661","DH-011","15:57:29","","","","","","","","","","","","","","null","[""<p style=\""font-size: 36px; width: 1200px; line-height: 40px;\"">Returning to the video...""]","null","","","","","","","",""
"","browser-check","248","2435812","0.0-249.0","59661","DH-011","15:57:30","1440","900","true","chrome","121.0.0","false","Mac OS","true","60","true","true","Browser_Check","","","","","","","","","","","",""
"","video-keyboard-response","249","2535043","0.0-250.0","59661","DH-011","15:59:10","","","","","","","","","","","","video20","","null","[""components/stim/StimVid_Undoing2.mp4""]","null","","","","","","","",""
"","image-slider-response-modified","250","2540575","0.0-251.0","59661","DH-011","15:59:15","","","","","","","","","","","","assessment 0","","5527","components/portraits/StimImgGraceFraser.PNG","25","","","","","25","Grace Fraser","A",""
"","image-slider-response-modified","251","2540858","0.0-252.0","59661","DH-011","15:59:15","","","","","","","","","","","","assessment 1","","278","components/portraits/StimImgHenryFraser.PNG","100","","","","","100","Henry Fraser","A",""
"","image-slider-response-modified","252","2541074","0.0-253.0","59661","DH-011","15:59:16","","","","","","","","","","","","assessment 2","","212","components/portraits/StimImgMiguelAlves.PNG","100","","","","","100","Miguel Alves","A",""
"","image-slider-response-modified","253","2541292","0.0-254.0","59661","DH-011","15:59:16","","","","","","","","","","","","assessment 3","","213","components/portraits/StimImgFranklinReinhardt.PNG","-52","","","","","-52","Franklin Reinhardt","A",""
"","image-slider-response-modified","254","2541524","0.0-255.0","59661","DH-011","15:59:16","","","","","","","","","","","","assessment 4","","227","components/portraits/StimImgJonathanFraser.PNG","-95","","","","","-95","Jonathan Fraser","A",""
"","image-slider-response-modified","255","2541825","0.0-256.0","59661","DH-011","15:59:16","","","","","","","","","","","","assessment 5","","297","components/portraits/StimImgElenaAlves.PNG","90","","","","","90","Elena Alves","A",""
"","image-slider-response-modified","256","2542057","0.0-257.0","59661","DH-011","15:59:17","","","","","","","","","","","","assessment 6","","229","components/portraits/StimImgSylviaSteinetz.PNG","70","","","","","70","Sylvia Steinetz","A",""
"","image-slider-response-modified","257","2542291","0.0-258.0","59661","DH-011","15:59:17","","","","","","","","","","","","assessment 7","","227","components/portraits/StimImgFernandoAlves.PNG","-76","","","","","-76","Fernando Alves","A",""
"","html-keyboard-response","258","2543298","0.0-259.0","59661","DH-011","15:59:18","","","","","","","","","","","","","","null","[""<p style=\""font-size: 36px; width: 1200px; line-height: 40px;\"">Returning to the video...""]","null","","","","","","","",""
"","browser-check","259","2544296","0.0-260.0","59661","DH-011","15:59:19","1440","900","true","chrome","121.0.0","false","Mac OS","true","60.39","true","true","Browser_Check","","","","","","","","","","","",""
"","video-keyboard-response","260","2621745","0.0-261.0","59661","DH-011","16:0:36","","","","","","","","","","","","video21","","null","[""components/stim/StimVid_Undoing2.mp4""]","null","","","","","","","",""
"","image-slider-response-modified","261","2626125","0.0-262.0","59661","DH-011","16:0:41","","","","","","","","","","","","assessment 0","","4375","components/portraits/StimImgGraceFraser.PNG","25","","","","","25","Grace Fraser","A",""
"","image-slider-response-modified","262","2627442","0.0-263.0","59661","DH-011","16:0:42","","","","","","","","","","","","assessment 1","","1312","components/portraits/StimImgHenryFraser.PNG","100","","","","","100","Henry Fraser","A",""
"","image-slider-response-modified","263","2628308","0.0-264.0","59661","DH-011","16:0:43","","","","","","","","","","","","assessment 2","","862","components/portraits/StimImgMiguelAlves.PNG","100","","","","","100","Miguel Alves","A",""
"","image-slider-response-modified","264","2634174","0.0-265.0","59661","DH-011","16:0:49","","","","","","","","","","","","assessment 3","","5862","components/portraits/StimImgFranklinReinhardt.PNG","-60","","","","","-52","Franklin Reinhardt","A",""
"","image-slider-response-modified","265","2635608","0.0-266.0","59661","DH-011","16:0:50","","","","","","","","","","","","assessment 4","","1430","components/portraits/StimImgJonathanFraser.PNG","-95","","","","","-95","Jonathan Fraser","A",""
"","image-slider-response-modified","266","2637025","0.0-267.0","59661","DH-011","16:0:52","","","","","","","","","","","","assessment 5","","1412","components/portraits/StimImgElenaAlves.PNG","90","","","","","90","Elena Alves","A",""
"","image-slider-response-modified","267","2647958","0.0-268.0","59661","DH-011","16:1:3","","","","","","","","","","","","assessment 6","","10927","components/portraits/StimImgSylviaSteinetz.PNG","76","","","","","70","Sylvia Steinetz","A",""
"","image-slider-response-modified","268","2649007","0.0-269.0","59661","DH-011","16:1:4","","","","","","","","","","","","assessment 7","","1045","components/portraits/StimImgFernandoAlves.PNG","-76","","","","","-76","Fernando Alves","A",""
"","html-keyboard-response","269","2650015","0.0-270.0","59661","DH-011","16:1:5","","","","","","","","","","","","","","null","[""<p style=\""font-size: 36px; width: 1200px; line-height: 40px;\"">Returning to the video...""]","null","","","","","","","",""
"","browser-check","270","2651013","0.0-271.0","59661","DH-011","16:1:6","1440","900","true","chrome","121.0.0","false","Mac OS","true","60.37","true","true","Browser_Check","","","","","","","","","","","",""
"","video-keyboard-response","271","2722341","0.0-272.0","59661","DH-011","16:2:17","","","","","","","","","","","","video22","","null","[""components/stim/StimVid_Undoing2.mp4""]","null","","","","","","","",""
"","image-slider-response-modified","272","2725891","0.0-273.0","59661","DH-011","16:2:20","","","","","","","","","","","","assessment 0","","3545","components/portraits/StimImgGraceFraser.PNG","25","","","","","25","Grace Fraser","A",""
"","image-slider-response-modified","273","2727460","0.0-274.0","59661","DH-011","16:2:22","","","","","","","","","","","","assessment 1","","1564","components/portraits/StimImgHenryFraser.PNG","100","","","","","100","Henry Fraser","A",""
"","image-slider-response-modified","274","2728826","0.0-275.0","59661","DH-011","16:2:23","","","","","","","","","","","","assessment 2","","1361","components/portraits/StimImgMiguelAlves.PNG","100","","","","","100","Miguel Alves","A",""
"","image-slider-response-modified","275","2730075","0.0-276.0","59661","DH-011","16:2:25","","","","","","","","","","","","assessment 3","","1245","components/portraits/StimImgFranklinReinhardt.PNG","-60","","","","","-60","Franklin Reinhardt","A",""
"","image-slider-response-modified","276","2732058","0.0-277.0","59661","DH-011","16:2:27","","","","","","","","","","","","assessment 4","","1979","components/portraits/StimImgJonathanFraser.PNG","-95","","","","","-95","Jonathan Fraser","A",""
"","image-slider-response-modified","277","2733509","0.0-278.0","59661","DH-011","16:2:28","","","","","","","","","","","","assessment 5","","1446","components/portraits/StimImgElenaAlves.PNG","90","","","","","90","Elena Alves","A",""
"","image-slider-response-modified","278","2734758","0.0-279.0","59661","DH-011","16:2:29","","","","","","","","","","","","assessment 6","","1245","components/portraits/StimImgSylviaSteinetz.PNG","76","","","","","76","Sylvia Steinetz","A",""
"","image-slider-response-modified","279","2738307","0.0-280.0","59661","DH-011","16:2:33","","","","","","","","","","","","assessment 7","","3544","components/portraits/StimImgFernandoAlves.PNG","-37","","","","","-76","Fernando Alves","A",""
"","html-keyboard-response","280","2739314","0.0-281.0","59661","DH-011","16:2:34","","","","","","","","","","","","","","null","[""<p style=\""font-size: 36px; width: 1200px; line-height: 40px;\"">Returning to the video...""]","null","","","","","","","",""
"","browser-check","281","2740313","0.0-282.0","59661","DH-011","16:2:35","1440","900","true","chrome","121.0.0","false","Mac OS","true","60.36","true","true","Browser_Check","","","","","","","","","","","",""
"","video-keyboard-response","282","2809494","0.0-283.0","59661","DH-011","16:3:44","","","","","","","","","","","","video23","","null","[""components/stim/StimVid_Undoing2.mp4""]","null","","","","","","","",""
"","image-slider-response-modified","283","2812108","0.0-284.0","59661","DH-011","16:3:47","","","","","","","","","","","","assessment 0","","2609","components/portraits/StimImgGraceFraser.PNG","25","","","","","25","Grace Fraser","A",""
"","image-slider-response-modified","284","2813275","0.0-285.0","59661","DH-011","16:3:48","","","","","","","","","","","","assessment 1","","1163","components/portraits/StimImgHenryFraser.PNG","100","","","","","100","Henry Fraser","A",""
"","image-slider-response-modified","285","2814308","0.0-286.0","59661","DH-011","16:3:49","","","","","","","","","","","","assessment 2","","1030","components/portraits/StimImgMiguelAlves.PNG","100","","","","","100","Miguel Alves","A",""
"","image-slider-response-modified","286","2815426","0.0-287.0","59661","DH-011","16:3:50","","","","","","","","","","","","assessment 3","","1113","components/portraits/StimImgFranklinReinhardt.PNG","-60","","","","","-60","Franklin Reinhardt","A",""
"","image-slider-response-modified","287","2819441","0.0-288.0","59661","DH-011","16:3:54","","","","","","","","","","","","assessment 4","","4011","components/portraits/StimImgJonathanFraser.PNG","-51","","","","","-95","Jonathan Fraser","A",""
"","image-slider-response-modified","288","2820758","0.0-289.0","59661","DH-011","16:3:55","","","","","","","","","","","","assessment 5","","1314","components/portraits/StimImgElenaAlves.PNG","90","","","","","90","Elena Alves","A",""
"","image-slider-response-modified","289","2821858","0.0-290.0","59661","DH-011","16:3:56","","","","","","","","","","","","assessment 6","","1096","components/portraits/StimImgSylviaSteinetz.PNG","76","","","","","76","Sylvia Steinetz","A",""
"","image-slider-response-modified","290","2823409","0.0-291.0","59661","DH-011","16:3:58","","","","","","","","","","","","assessment 7","","1548","components/portraits/StimImgFernandoAlves.PNG","-37","","","","","-37","Fernando Alves","A",""
"","html-keyboard-response","291","2824416","0.0-292.0","59661","DH-011","16:3:59","","","","","","","","","","","","","","null","[""<p style=\""font-size: 36px; width: 1200px; line-height: 40px;\"">Returning to the video...""]","null","","","","","","","",""
"","browser-check","292","2825412","0.0-293.0","59661","DH-011","16:4:0","1440","900","true","chrome","121.0.0","false","Mac OS","true","60.48","true","true","Browser_Check","","","","","","","","","","","",""
"","video-keyboard-response","293","2918776","0.0-294.0","59661","DH-011","16:5:33","","","","","","","","","","","","video24","","null","[""components/stim/StimVid_Undoing2.mp4""]","null","","","","","","","",""
"","image-slider-response-modified","294","2925191","0.0-295.0","59661","DH-011","16:5:40","","","","","","","","","","","","assessment 0","","6410","components/portraits/StimImgGraceFraser.PNG","20","","","","","25","Grace Fraser","A",""
"","image-slider-response-modified","295","2926342","0.0-296.0","59661","DH-011","16:5:41","","","","","","","","","","","","assessment 1","","1146","components/portraits/StimImgHenryFraser.PNG","100","","","","","100","Henry Fraser","A",""
"","image-slider-response-modified","296","2927942","0.0-297.0","59661","DH-011","16:5:43","","","","","","","","","","","","assessment 2","","1597","components/portraits/StimImgMiguelAlves.PNG","100","","","","","100","Miguel Alves","A",""
"","image-slider-response-modified","297","2929058","0.0-298.0","59661","DH-011","16:5:44","","","","","","","","","","","","assessment 3","","1112","components/portraits/StimImgFranklinReinhardt.PNG","-60","","","","","-60","Franklin Reinhardt","A",""
"","image-slider-response-modified","298","2935725","0.0-299.0","59661","DH-011","16:5:50","","","","","","","","","","","","assessment 4","","6662","components/portraits/StimImgJonathanFraser.PNG","-28","","","","","-51","Jonathan Fraser","A",""
"","image-slider-response-modified","299","2936775","0.0-300.0","59661","DH-011","16:5:51","","","","","","","","","","","","assessment 5","","1046","components/portraits/StimImgElenaAlves.PNG","90","","","","","90","Elena Alves","A",""
"","image-slider-response-modified","300","2937958","0.0-301.0","59661","DH-011","16:5:53","","","","","","","","","","","","assessment 6","","1179","components/portraits/StimImgSylviaSteinetz.PNG","76","","","","","76","Sylvia Steinetz","A",""
"","image-slider-response-modified","301","2946858","0.0-302.0","59661","DH-011","16:6:1","","","","","","","","","","","","assessment 7","","8896","components/portraits/StimImgFernandoAlves.PNG","-72","","","","","-37","Fernando Alves","A",""
"","html-keyboard-response","302","2947861","0.0-303.0","59661","DH-011","16:6:2","","","","","","","","","","","","","","null","[""<p style=\""font-size: 36px; width: 1200px; line-height: 40px;\"">Returning to the video...""]","null","","","","","","","",""
"","browser-check","303","2948880","0.0-304.0","59661","DH-011","16:6:3","1440","900","true","chrome","121.0.0","false","Mac OS","true","60.03","true","true","Browser_Check","","","","","","","","","","","",""
"","video-keyboard-response","304","3040136","0.0-305.0","59661","DH-011","16:7:35","","","","","","","","","","","","video25","","null","[""components/stim/StimVid_Undoing2.mp4""]","null","","","","","","","",""
"","image-slider-response-modified","305","3044358","0.0-306.0","59661","DH-011","16:7:39","","","","","","","","","","","","assessment 0","","4218","components/portraits/StimImgGraceFraser.PNG","20","","","","","20","Grace Fraser","A",""
"","image-slider-response-modified","306","3045275","0.0-307.0","59661","DH-011","16:7:40","","","","","","","","","","","","assessment 1","","912","components/portraits/StimImgHenryFraser.PNG","100","","","","","100","Henry Fraser","A",""
"","image-slider-response-modified","307","3046291","0.0-308.0","59661","DH-011","16:7:41","","","","","","","","","","","","assessment 2","","1013","components/portraits/StimImgMiguelAlves.PNG","100","","","","","100","Miguel Alves","A",""
"","image-slider-response-modified","308","3047392","0.0-309.0","59661","DH-011","16:7:42","","","","","","","","","","","","assessment 3","","1096","components/portraits/StimImgFranklinReinhardt.PNG","-60","","","","","-60","Franklin Reinhardt","A",""
"","image-slider-response-modified","309","3048258","0.0-310.0","59661","DH-011","16:7:43","","","","","","","","","","","","assessment 4","","862","components/portraits/StimImgJonathanFraser.PNG","-28","","","","","-28","Jonathan Fraser","A",""
"","image-slider-response-modified","310","3048742","0.0-311.0","59661","DH-011","16:7:43","","","","","","","","","","","","assessment 5","","480","components/portraits/StimImgElenaAlves.PNG","90","","","","","90","Elena Alves","A",""
"","image-slider-response-modified","311","3049042","0.0-312.0","59661","DH-011","16:7:44","","","","","","","","","","","","assessment 6","","296","components/portraits/StimImgSylviaSteinetz.PNG","76","","","","","76","Sylvia Steinetz","A",""
"","image-slider-response-modified","312","3049908","0.0-313.0","59661","DH-011","16:7:45","","","","","","","","","","","","assessment 7","","862","components/portraits/StimImgFernandoAlves.PNG","-72","","","","","-72","Fernando Alves","A",""
"","html-keyboard-response","313","3050915","0.0-314.0","59661","DH-011","16:7:46","","","","","","","","","","","","","","null","[""<p style=\""font-size: 36px; width: 1200px; line-height: 40px;\"">Returning to the video...""]","null","","","","","","","",""
"","browser-check","314","3051913","0.0-315.0","59661","DH-011","16:7:47","1440","900","true","chrome","121.0.0","false","Mac OS","true","60.39","true","true","Browser_Check","","","","","","","","","","","",""
"","video-keyboard-response","315","3151128","0.0-316.0","59661","DH-011","16:9:26","","","","","","","","","","","","video26","","null","[""components/stim/StimVid_Undoing2.mp4""]","null","","","","","","","",""
"","image-slider-response-modified","316","3157359","0.0-317.0","59661","DH-011","16:9:32","","","","","","","","","","","","assessment 0","","6225","components/portraits/StimImgGraceFraser.PNG","20","","","","","20","Grace Fraser","A",""
"","image-slider-response-modified","317","3157792","0.0-318.0","59661","DH-011","16:9:32","","","","","","","","","","","","assessment 1","","429","components/portraits/StimImgHenryFraser.PNG","100","","","","","100","Henry Fraser","A",""
"","image-slider-response-modified","318","3158225","0.0-319.0","59661","DH-011","16:9:33","","","","","","","","","","","","assessment 2","","429","components/portraits/StimImgMiguelAlves.PNG","100","","","","","100","Miguel Alves","A",""
"","image-slider-response-modified","319","3158642","0.0-320.0","59661","DH-011","16:9:33","","","","","","","","","","","","assessment 3","","412","components/portraits/StimImgFranklinReinhardt.PNG","-60","","","","","-60","Franklin Reinhardt","A",""
"","image-slider-response-modified","320","3159059","0.0-321.0","59661","DH-011","16:9:34","","","","","","","","","","","","assessment 4","","413","components/portraits/StimImgJonathanFraser.PNG","-28","","","","","-28","Jonathan Fraser","A",""
"","image-slider-response-modified","321","3159508","0.0-322.0","59661","DH-011","16:9:34","","","","","","","","","","","","assessment 5","","444","components/portraits/StimImgElenaAlves.PNG","90","","","","","90","Elena Alves","A",""
"","image-slider-response-modified","322","3159909","0.0-323.0","59661","DH-011","16:9:35","","","","","","","","","","","","assessment 6","","397","components/portraits/StimImgSylviaSteinetz.PNG","76","","","","","76","Sylvia Steinetz","A",""
"","image-slider-response-modified","323","3160341","0.0-324.0","59661","DH-011","16:9:35","","","","","","","","","","","","assessment 7","","428","components/portraits/StimImgFernandoAlves.PNG","-72","","","","","-72","Fernando Alves","A",""
"","html-keyboard-response","324","3161348","0.0-325.0","59661","DH-011","16:9:36","","","","","","","","","","","","","","null","[""<p style=\""font-size: 36px; width: 1200px; line-height: 40px;\"">Returning to the video...""]","null","","","","","","","",""
"","browser-check","325","3162347","0.0-326.0","59661","DH-011","16:9:37","1440","900","true","chrome","121.0.0","false","Mac OS","true","60.36","true","true","Browser_Check","","","","","","","","","","","",""
"","video-keyboard-response","326","3245647","0.0-327.0","59661","DH-011","16:11:0","","","","","","","","","","","","video27","","null","[""components/stim/StimVid_Undoing2.mp4""]","null","","","","","","","",""
"","image-slider-response-modified","327","3250592","0.0-328.0","59661","DH-011","16:11:5","","","","","","","","","","","","assessment 0","","4942","components/portraits/StimImgGraceFraser.PNG","20","","","","","20","Grace Fraser","A",""
"","image-slider-response-modified","328","3250926","0.0-329.0","59661","DH-011","16:11:6","","","","","","","","","","","","assessment 1","","329","components/portraits/StimImgHenryFraser.PNG","100","","","","","100","Henry Fraser","A",""
"","image-slider-response-modified","329","3251509","0.0-330.0","59661","DH-011","16:11:6","","","","","","","","","","","","assessment 2","","579","components/portraits/StimImgMiguelAlves.PNG","100","","","","","100","Miguel Alves","A",""
"","image-slider-response-modified","330","3251959","0.0-331.0","59661","DH-011","16:11:7","","","","","","","","","","","","assessment 3","","446","components/portraits/StimImgFranklinReinhardt.PNG","-60","","","","","-60","Franklin Reinhardt","A",""
"","image-slider-response-modified","331","3261926","0.0-332.0","59661","DH-011","16:11:17","","","","","","","","","","","","assessment 4","","9962","components/portraits/StimImgJonathanFraser.PNG","12","","","","","-28","Jonathan Fraser","A",""
"","image-slider-response-modified","332","3262442","0.0-333.0","59661","DH-011","16:11:17","","","","","","","","","","","","assessment 5","","512","components/portraits/StimImgElenaAlves.PNG","90","","","","","90","Elena Alves","A",""
"","image-slider-response-modified","333","3263009","0.0-334.0","59661","DH-011","16:11:18","","","","","","","","","","","","assessment 6","","562","components/portraits/StimImgSylviaSteinetz.PNG","76","","","","","76","Sylvia Steinetz","A",""
"","image-slider-response-modified","334","3263675","0.0-335.0","59661","DH-011","16:11:18","","","","","","","","","","","","assessment 7","","662","components/portraits/StimImgFernandoAlves.PNG","-72","","","","","-72","Fernando Alves","A",""
"","html-keyboard-response","335","3264683","0.0-336.0","59661","DH-011","16:11:19","","","","","","","","","","","","","","null","[""<p style=\""font-size: 36px; width: 1200px; line-height: 40px;\"">Returning to the video...""]","null","","","","","","","",""
"","browser-check","336","3265679","0.0-337.0","59661","DH-011","16:11:20","1440","900","true","chrome","121.0.0","false","Mac OS","true","60.42","true","true","Browser_Check","","","","","","","","","","","",""
"","video-keyboard-response","337","3348960","0.0-338.0","59661","DH-011","16:12:44","","","","","","","","","","","","video28","","null","[""components/stim/StimVid_Undoing2.mp4""]","null","","","","","","","",""
"","image-slider-response-modified","338","3351125","0.0-339.0","59661","DH-011","16:12:46","","","","","","","","","","","","assessment 0","","2159","components/portraits/StimImgGraceFraser.PNG","20","","","","","20","Grace Fraser","A",""
"","image-slider-response-modified","339","3351409","0.0-340.0","59661","DH-011","16:12:46","","","","","","","","","","","","assessment 1","","279","components/portraits/StimImgHenryFraser.PNG","100","","","","","100","Henry Fraser","A",""
"","image-slider-response-modified","340","3351625","0.0-341.0","59661","DH-011","16:12:46","","","","","","","","","","","","assessment 2","","212","components/portraits/StimImgMiguelAlves.PNG","100","","","","","100","Miguel Alves","A",""
"","image-slider-response-modified","341","3351842","0.0-342.0","59661","DH-011","16:12:46","","","","","","","","","","","","assessment 3","","209","components/portraits/StimImgFranklinReinhardt.PNG","-60","","","","","-60","Franklin Reinhardt","A",""
"","image-slider-response-modified","342","3352075","0.0-343.0","59661","DH-011","16:12:47","","","","","","","","","","","","assessment 4","","229","components/portraits/StimImgJonathanFraser.PNG","12","","","","","12","Jonathan Fraser","A",""
"","image-slider-response-modified","343","3352309","0.0-344.0","59661","DH-011","16:12:47","","","","","","","","","","","","assessment 5","","228","components/portraits/StimImgElenaAlves.PNG","90","","","","","90","Elena Alves","A",""
"","image-slider-response-modified","344","3352742","0.0-345.0","59661","DH-011","16:12:47","","","","","","","","","","","","assessment 6","","430","components/portraits/StimImgSylviaSteinetz.PNG","76","","","","","76","Sylvia Steinetz","A",""
"","image-slider-response-modified","345","3353676","0.0-346.0","59661","DH-011","16:12:48","","","","","","","","","","","","assessment 7","","930","components/portraits/StimImgFernandoAlves.PNG","-72","","","","","-72","Fernando Alves","A",""
"","html-keyboard-response","346","3354678","0.0-347.0","59661","DH-011","16:12:49","","","","","","","","","","","","","","null","[""<p style=\""font-size: 36px; width: 1200px; line-height: 40px;\"">Returning to the video...""]","null","","","","","","","",""
"","browser-check","347","3355680","0.0-348.0","59661","DH-011","16:12:50","1440","900","true","chrome","121.0.0","false","Mac OS","true","60.17","true","true","Browser_Check","","","","","","","","","","","",""
"","video-keyboard-response","348","3424883","0.0-349.0","59661","DH-011","16:13:59","","","","","","","","","","","","video29","","null","[""components/stim/StimVid_Undoing2.mp4""]","null","","","","","","","",""
"","image-slider-response-modified","349","3429444","0.0-350.0","59661","DH-011","16:14:4","","","","","","","","","","","","assessment 0","","4556","components/portraits/StimImgGraceFraser.PNG","20","","","","","20","Grace Fraser","A",""
"","image-slider-response-modified","350","3430408","0.0-351.0","59661","DH-011","16:14:5","","","","","","","","","","","","assessment 1","","959","components/portraits/StimImgHenryFraser.PNG","100","","","","","100","Henry Fraser","A",""
"","image-slider-response-modified","351","3431176","0.0-352.0","59661","DH-011","16:14:6","","","","","","","","","","","","assessment 2","","764","components/portraits/StimImgMiguelAlves.PNG","100","","","","","100","Miguel Alves","A",""
"","image-slider-response-modified","352","3435074","0.0-353.0","59661","DH-011","16:14:10","","","","","","","","","","","","assessment 3","","3895","components/portraits/StimImgFranklinReinhardt.PNG","-72","","","","","-60","Franklin Reinhardt","A",""
"","image-slider-response-modified","353","3436308","0.0-354.0","59661","DH-011","16:14:11","","","","","","","","","","","","assessment 4","","1230","components/portraits/StimImgJonathanFraser.PNG","12","","","","","12","Jonathan Fraser","A",""
"","image-slider-response-modified","354","3437159","0.0-355.0","59661","DH-011","16:14:12","","","","","","","","","","","","assessment 5","","846","components/portraits/StimImgElenaAlves.PNG","90","","","","","90","Elena Alves","A",""
"","image-slider-response-modified","355","3437809","0.0-356.0","59661","DH-011","16:14:12","","","","","","","","","","","","assessment 6","","645","components/portraits/StimImgSylviaSteinetz.PNG","76","","","","","76","Sylvia Steinetz","A",""
"","image-slider-response-modified","356","3438560","0.0-357.0","59661","DH-011","16:14:13","","","","","","","","","","","","assessment 7","","747","components/portraits/StimImgFernandoAlves.PNG","-72","","","","","-72","Fernando Alves","A",""
"","html-keyboard-response","357","3439567","0.0-358.0","59661","DH-011","16:14:14","","","","","","","","","","","","","","null","[""<p style=\""font-size: 36px; width: 1200px; line-height: 40px;\"">Returning to the video...""]","null","","","","","","","",""
"","browser-check","358","3440580","0.0-359.0","59661","DH-011","16:14:15","1440","900","true","chrome","121.0.0","false","Mac OS","true","59.52","true","true","Browser_Check","","","","","","","","","","","",""
"","video-keyboard-response","359","3511896","0.0-360.0","59661","DH-011","16:15:27","","","","","","","","","","","","video30","","null","[""components/stim/StimVid_Undoing2.mp4""]","null","","","","","","","",""
"","image-slider-response-modified","360","3521158","0.0-361.0","59661","DH-011","16:15:36","","","","","","","","","","","","assessment 0","","9257","components/portraits/StimImgGraceFraser.PNG","9","","","","","20","Grace Fraser","A",""
"","image-slider-response-modified","361","3521541","0.0-362.0","59661","DH-011","16:15:36","","","","","","","","","","","","assessment 1","","379","components/portraits/StimImgHenryFraser.PNG","100","","","","","100","Henry Fraser","A",""
"","image-slider-response-modified","362","3521907","0.0-363.0","59661","DH-011","16:15:37","","","","","","","","","","","","assessment 2","","363","components/portraits/StimImgMiguelAlves.PNG","100","","","","","100","Miguel Alves","A",""
"","image-slider-response-modified","363","3522241","0.0-364.0","59661","DH-011","16:15:37","","","","","","","","","","","","assessment 3","","329","components/portraits/StimImgFranklinReinhardt.PNG","-72","","","","","-72","Franklin Reinhardt","A",""
"","image-slider-response-modified","364","3522574","0.0-365.0","59661","DH-011","16:15:37","","","","","","","","","","","","assessment 4","","329","components/portraits/StimImgJonathanFraser.PNG","12","","","","","12","Jonathan Fraser","A",""
"","image-slider-response-modified","365","3522891","0.0-366.0","59661","DH-011","16:15:37","","","","","","","","","","","","assessment 5","","313","components/portraits/StimImgElenaAlves.PNG","90","","","","","90","Elena Alves","A",""
"","image-slider-response-modified","366","3523192","0.0-367.0","59661","DH-011","16:15:38","","","","","","","","","","","","assessment 6","","296","components/portraits/StimImgSylviaSteinetz.PNG","76","","","","","76","Sylvia Steinetz","A",""
"","image-slider-response-modified","367","3523476","0.0-368.0","59661","DH-011","16:15:38","","","","","","","","","","","","assessment 7","","280","components/portraits/StimImgFernandoAlves.PNG","-72","","","","","-72","Fernando Alves","A",""
"","html-keyboard-response","368","3524483","0.0-369.0","59661","DH-011","16:15:39","","","","","","","","","","","","","","null","[""<p style=\""font-size: 36px; width: 1200px; line-height: 40px;\"">Returning to the video...""]","null","","","","","","","",""
"","browser-check","369","3525480","0.0-370.0","59661","DH-011","16:15:40","1440","900","true","chrome","121.0.0","false","Mac OS","true","60.44","true","true","Browser_Check","","","","","","","","","","","",""
"","video-keyboard-response","370","3608755","0.0-371.0","59661","DH-011","16:17:3","","","","","","","","","","","","video31","","null","[""components/stim/StimVid_Undoing2.mp4""]","null","","","","","","","",""
"","image-slider-response-modified","371","3613791","0.0-372.0","59661","DH-011","16:17:8","","","","","","","","","","","","assessment 0","","5031","components/portraits/StimImgGraceFraser.PNG","9","","","","","9","Grace Fraser","A",""
"","image-slider-response-modified","372","3613974","0.0-373.0","59661","DH-011","16:17:9","","","","","","","","","","","","assessment 1","","179","components/portraits/StimImgHenryFraser.PNG","100","","","","","100","Henry Fraser","A",""
"","image-slider-response-modified","373","3614143","0.0-374.0","59661","DH-011","16:17:9","","","","","","","","","","","","assessment 2","","166","components/portraits/StimImgMiguelAlves.PNG","100","","","","","100","Miguel Alves","A",""
"","image-slider-response-modified","374","3614341","0.0-375.0","59661","DH-011","16:17:9","","","","","","","","","","","","assessment 3","","193","components/portraits/StimImgFranklinReinhardt.PNG","-72","","","","","-72","Franklin Reinhardt","A",""
"","image-slider-response-modified","375","3614508","0.0-376.0","59661","DH-011","16:17:9","","","","","","","","","","","","assessment 4","","163","components/portraits/StimImgJonathanFraser.PNG","12","","","","","12","Jonathan Fraser","A",""
"","image-slider-response-modified","376","3614708","0.0-377.0","59661","DH-011","16:17:9","","","","","","","","","","","","assessment 5","","195","components/portraits/StimImgElenaAlves.PNG","90","","","","","90","Elena Alves","A",""
"","image-slider-response-modified","377","3614975","0.0-378.0","59661","DH-011","16:17:10","","","","","","","","","","","","assessment 6","","262","components/portraits/StimImgSylviaSteinetz.PNG","76","","","","","76","Sylvia Steinetz","A",""
"","image-slider-response-modified","378","3615208","0.0-379.0","59661","DH-011","16:17:10","","","","","","","","","","","","assessment 7","","229","components/portraits/StimImgFernandoAlves.PNG","-72","","","","","-72","Fernando Alves","A",""
"","html-keyboard-response","379","3616216","0.0-380.0","59661","DH-011","16:17:11","","","","","","","","","","","","","","null","[""<p style=\""font-size: 36px; width: 1200px; line-height: 40px;\"">Returning to the video...""]","null","","","","","","","",""
"","browser-check","380","3617212","0.0-381.0","59661","DH-011","16:17:12","1440","900","true","chrome","121.0.0","false","Mac OS","true","60.44","true","true","Browser_Check","","","","","","","","","","","",""
"","video-keyboard-response","381","3704459","0.0-382.0","59661","DH-011","16:18:39","","","","","","","","","","","","video32","","null","[""components/stim/StimVid_Undoing2.mp4""]","null","","","","","","","",""
"","image-slider-response-modified","382","3709375","0.0-383.0","59661","DH-011","16:18:44","","","","","","","","","","","","assessment 0","","4911","components/portraits/StimImgGraceFraser.PNG","9","","","","","9","Grace Fraser","A",""
"","image-slider-response-modified","383","3709627","0.0-384.0","59661","DH-011","16:18:44","","","","","","","","","","","","assessment 1","","246","components/portraits/StimImgHenryFraser.PNG","100","","","","","100","Henry Fraser","A",""
"","image-slider-response-modified","384","3710159","0.0-385.0","59661","DH-011","16:18:45","","","","","","","","","","","","assessment 2","","528","components/portraits/StimImgMiguelAlves.PNG","100","","","","","100","Miguel Alves","A",""
"","image-slider-response-modified","385","3710542","0.0-386.0","59661","DH-011","16:18:45","","","","","","","","","","","","assessment 3","","378","components/portraits/StimImgFranklinReinhardt.PNG","-72","","","","","-72","Franklin Reinhardt","A",""
"","image-slider-response-modified","386","3714008","0.0-387.0","59661","DH-011","16:18:49","","","","","","","","","","","","assessment 4","","3462","components/portraits/StimImgJonathanFraser.PNG","39","","","","","12","Jonathan Fraser","A",""
"","image-slider-response-modified","387","3714974","0.0-388.0","59661","DH-011","16:18:50","","","","","","","","","","","","assessment 5","","963","components/portraits/StimImgElenaAlves.PNG","90","","","","","90","Elena Alves","A",""
"","image-slider-response-modified","388","3715941","0.0-389.0","59661","DH-011","16:18:51","","","","","","","","","","","","assessment 6","","964","components/portraits/StimImgSylviaSteinetz.PNG","76","","","","","76","Sylvia Steinetz","A",""
"","image-slider-response-modified","389","3719308","0.0-390.0","59661","DH-011","16:18:54","","","","","","","","","","","","assessment 7","","3362","components/portraits/StimImgFernandoAlves.PNG","-88","","","","","-72","Fernando Alves","A",""
"","html-keyboard-response","390","3720315","0.0-391.0","59661","DH-011","16:18:55","","","","","","","","","","","","","","null","[""<p style=\""font-size: 36px; width: 1200px; line-height: 40px;\"">Returning to the video...""]","null","","","","","","","",""
"","browser-check","391","3721313","0.0-392.0","59661","DH-011","16:18:56","1440","900","true","chrome","121.0.0","false","Mac OS","true","60.4","true","true","Browser_Check","","","","","","","","","","","",""
"","video-keyboard-response","392","3798736","0.0-393.0","59661","DH-011","16:20:13","","","","","","","","","","","","video33","","null","[""components/stim/StimVid_Undoing2.mp4""]","null","","","","","","","",""
"","image-slider-response-modified","393","3805274","0.0-394.0","59661","DH-011","16:20:20","","","","","","","","","","","","assessment 0","","6535","components/portraits/StimImgGraceFraser.PNG","-5","","","","","9","Grace Fraser","A",""
"","image-slider-response-modified","394","3805559","0.0-395.0","59661","DH-011","16:20:20","","","","","","","","","","","","assessment 1","","280","components/portraits/StimImgHenryFraser.PNG","100","","","","","100","Henry Fraser","A",""
"","image-slider-response-modified","395","3805741","0.0-396.0","59661","DH-011","16:20:20","","","","","","","","","","","","assessment 2","","178","components/portraits/StimImgMiguelAlves.PNG","100","","","","","100","Miguel Alves","A",""
"","image-slider-response-modified","396","3805942","0.0-397.0","59661","DH-011","16:20:21","","","","","","","","","","","","assessment 3","","197","components/portraits/StimImgFranklinReinhardt.PNG","-72","","","","","-72","Franklin Reinhardt","A",""
"","image-slider-response-modified","397","3806092","0.0-398.0","59661","DH-011","16:20:21","","","","","","","","","","","","assessment 4","","145","components/portraits/StimImgJonathanFraser.PNG","39","","","","","39","Jonathan Fraser","A",""
"","image-slider-response-modified","398","3806275","0.0-399.0","59661","DH-011","16:20:21","","","","","","","","","","","","assessment 5","","179","components/portraits/StimImgElenaAlves.PNG","90","","","","","90","Elena Alves","A",""
"","image-slider-response-modified","399","3806459","0.0-400.0","59661","DH-011","16:20:21","","","","","","","","","","","","assessment 6","","180","components/portraits/StimImgSylviaSteinetz.PNG","76","","","","","76","Sylvia Steinetz","A",""
"","image-slider-response-modified","400","3806641","0.0-401.0","59661","DH-011","16:20:21","","","","","","","","","","","","assessment 7","","178","components/portraits/StimImgFernandoAlves.PNG","-88","","","","","-88","Fernando Alves","A",""
"","html-keyboard-response","401","3807648","0.0-402.0","59661","DH-011","16:20:22","","","","","","","","","","","","","","null","[""<p style=\""font-size: 36px; width: 1200px; line-height: 40px;\"">Returning to the video...""]","null","","","","","","","",""
